"Time (s)","Acceleration x (m/s^2)","Acceleration y (m/s^2)","Acceleration z (m/s^2)","Absolute acceleration (m/s^2)"
1.311104163E-2,-3.846551056E0,8.695417786E0,6.855294342E0,1.172183032E1
2.311704168E-2,-3.537144470E0,8.742719421E0,7.570806427E0,1.209395071E1
3.312304150E-2,-2.701432343E0,8.671317902E0,8.857081604E0,1.268610994E1
4.313004157E-2,-1.876946869E0,8.060887299E0,9.998757477E0,1.297982992E1
5.313604162E-2,-1.728156281E0,7.133565674E0,1.062505508E1,1.291379413E1
6.314204168E-2,-2.080523529E0,6.657854919E0,1.108759323E1,1.309924937E1
7.314804150E-2,-2.628683624E0,6.454278259E0,1.121452927E1,1.320353559E1
8.315404155E-2,-3.105142822E0,6.069877625E0,1.115330658E1,1.307216791E1
9.316104162E-2,-3.459306335E0,5.928272095E0,1.078911392E1,1.278734490E1
1.031670417E-1,-3.761827240E0,5.884712677E0,1.019440063E1,1.235746705E1
1.131730415E-1,-3.800746307E0,5.819448395E0,9.742789764E0,1.196802425E1
1.231790415E-1,-3.577560425E0,5.570516052E0,9.229357452E0,1.135828449E1
1.331850416E-1,-3.262166290E0,5.577850800E0,8.784033508E0,1.090474177E1
1.431920417E-1,-2.879412231E0,5.769751740E0,8.430917816E0,1.061420864E1
1.531980417E-1,-2.616708527E0,5.826783142E0,8.129594421E0,1.033870740E1
1.632040415E-1,-2.149979095E0,5.987099762E0,8.185578003E0,1.036684431E1
1.732100416E-1,-1.588796082E0,6.174659729E0,8.284073181E0,1.045354314E1
1.832160417E-1,-1.245410156E0,6.196663971E0,8.217162323E0,1.036684366E1
1.932220417E-1,-1.251547394E0,6.215674438E0,8.254734192E0,1.040872788E1
2.032290415E-1,-1.436862030E0,6.078409882E0,8.155939636E0,1.027282778E1
2.132350416E-1,-1.795516205E0,5.675148468E0,7.936945038E0,9.921002223E0
2.232410416E-1,-2.264341278E0,5.290598145E0,7.788753204E0,9.684128594E0
2.332470417E-1,-2.694546661E0,5.082680511E0,7.769593048E0,9.667512556E0
2.432530415E-1,-3.010988617E0,5.036726074E0,7.828121338E0,9.783360654E0
2.532600416E-1,-3.036136322E0,4.928201752E0,7.947273560E0,9.831808242E0
2.632660416E-1,-2.669249268E0,4.605772247E0,7.993826752E0,9.604129101E0
2.732720417E-1,-2.208806763E0,4.374353485E0,7.810158691E0,9.220215535E0
2.832780415E-1,-1.779200134E0,4.301006012E0,7.562124481E0,8.879748448E0
2.932840416E-1,-1.412762146E0,4.346810760E0,7.168592834E0,8.501728289E0
3.032900416E-1,-1.077758789E0,4.460873566E0,6.772366791E0,8.180825687E0
3.132970417E-1,-9.520202637E-1,4.367916870E0,6.488706665E0,7.879616396E0
3.233030415E-1,-9.940827942E-1,3.843257904E0,6.308930511E0,7.453954395E0
3.333090416E-1,-1.248254242E0,3.526217194E0,6.073470154E0,7.132978765E0
3.433150416E-1,-1.609602814E0,3.945644989E0,5.829327850E0,7.220803195E0
3.533210417E-1,-1.914369049E0,4.555027771E0,5.637127533E0,7.496018521E0
3.633280415E-1,-1.972747650E0,4.798271942E0,5.344935150E0,7.448723292E0
3.733340416E-1,-1.894610138E0,4.940775604E0,5.134173431E0,7.372960597E0
3.833400416E-1,-1.768721924E0,5.177134094E0,5.207670593E0,7.553206450E0
3.933460417E-1,-1.641187134E0,5.741011505E0,5.471422119E0,8.098713991E0
4.033520415E-1,-1.185534668E0,6.181246033E0,5.614374847E0,8.434127097E0
4.133590416E-1,-7.771838379E-1,6.047424316E0,5.759572906E0,8.387373584E0
4.233650416E-1,-1.202449493E0,4.856201477E0,5.325475616E0,7.306796022E0
4.333710417E-1,-1.625020752E0,3.391197968E0,4.658312988E0,5.986718299E0
4.433770417E-1,-1.988165588E0,3.742816772E0,5.392236786E0,6.858403411E0
4.533830415E-1,-1.863474884E0,5.167104950E0,6.522686005E0,8.527423111E0
4.633890416E-1,-9.677375793E-1,6.205345917E0,7.473658447E0,9.762090173E0
4.733960417E-1,-6.976991272E-1,6.458319855E0,7.485633545E0,9.911174955E0
4.834020417E-1,-6.697073364E-1,6.790479126E0,7.041207733E0,9.804984499E0
4.934080415E-1,-5.408253479E-1,7.111112366E0,6.357729034E0,9.554115847E0
5.034140416E-1,-6.084846497E-1,6.909631348E0,5.870791626E0,9.087323767E0
5.134200417E-1,-8.363108826E-1,6.444847870E0,6.013444977E0,8.854208064E0
5.234270417E-1,-9.425898743E-1,6.084397430E0,6.632707214E0,9.049926671E0
5.334330415E-1,-7.066804504E-1,6.070626068E0,7.557933197E0,9.719786640E0
5.434390416E-1,-4.724176025E-1,6.328240356E0,8.571625214E0,1.066501586E1
5.534450416E-1,-1.426533508E-1,6.573580170E0,8.814120941E0,1.099641006E1
5.634510417E-1,3.781137085E-1,6.837182007E0,8.970545654E0,1.128542056E1
5.734570415E-1,7.047344971E-1,7.267088013E0,8.570876770E0,1.125909177E1
5.834640416E-1,7.714956665E-1,7.469317474E0,8.139623566E0,1.107426661E1
5.934700416E-1,7.084767151E-1,7.117998047E0,8.351882172E0,1.099644357E1
6.034760417E-1,7.924520874E-1,6.542744293E0,9.519154816E0,1.157798737E1
6.134820415E-1,1.172960815E0,6.178851013E0,1.102038300E1,1.268869096E1
6.234880416E-1,1.445094910E0,6.074368286E0,1.178858551E1,1.334005239E1
6.334950416E-1,2.078278198E0,6.180946655E0,1.165326691E1,1.335372500E1
6.435010417E-1,2.508184204E0,6.364764404E0,1.064182022E1,1.265106919E1
6.535070415E-1,3.188220062E0,6.328689423E0,9.655970306E0,1.197726261E1
6.635130416E-1,3.755690002E0,6.221212921E0,9.896969147E0,1.227838328E1
6.735190416E-1,3.905977478E0,6.324198761E0,1.074061478E1,1.306188944E1
6.835250417E-1,3.934717712E0,6.049220581E0,1.159189453E1,1.365456304E1
6.935320415E-1,3.632496185E0,5.632936249E0,1.252819748E1,1.420847393E1
7.035380416E-1,3.463796997E0,5.272036743E0,1.376986542E1,1.514600458E1
7.135440416E-1,3.238216095E0,4.979994049E0,1.455333618E1,1.571896874E1
7.235500417E-1,3.287613373E0,4.705614624E0,1.457099945E1,1.566094619E1
7.335560415E-1,3.253334656E0,4.680616608E0,1.357976074E1,1.472760198E1
7.435620415E-1,2.810705109E0,4.600233765E0,1.166464325E1,1.285014070E1
7.535690416E-1,2.618654480E0,4.263434143E0,9.926457825E0,1.111614982E1
7.635750417E-1,2.538121948E0,3.925437012E0,8.658744049E0,9.839967849E0
7.735810417E-1,2.273023224E0,3.910318451E0,8.282875671E0,9.437333011E0
7.835870415E-1,1.652413788E0,3.669918365E0,8.515342255E0,9.418589377E0
7.935930416E-1,2.059417419E0,2.961441650E0,9.166937256E0,9.851095138E0
8.036000417E-1,2.598296814E0,2.842289429E0,9.822424164E0,1.055034464E1
8.136060417E-1,2.860401764E0,3.207679596E0,9.689650269E0,1.060002023E1
8.236120415E-1,3.371588745E0,3.838018799E0,9.098230133E0,1.043435626E1
8.336180416E-1,3.669618988E0,4.310885468E0,8.519832916E0,1.022924191E1
8.436241667E-1,3.613635406E0,4.405638428E0,7.943082275E0,9.775508521E0
8.536301665E-1,3.051254883E0,4.365222473E0,7.251520386E0,8.997214653E0
8.636371666E-1,2.240540771E0,4.169429626E0,6.898554382E0,8.366254773E0
8.736431666E-1,1.770069122E0,3.930975494E0,6.853797455E0,8.096928590E0
8.836491667E-1,1.632205811E0,3.252885590E0,6.714287567E0,7.637212712E0
8.936551665E-1,1.563199310E0,3.094814301E0,6.765780487E0,7.602450476E0
9.036611666E-1,1.464853821E0,3.500171356E0,6.429130554E0,7.465300792E0
9.136671666E-1,1.127156067E0,3.918251953E0,5.633684692E0,6.954249232E0
9.236741667E-1,9.621990967E-1,4.004622345E0,5.551505585E0,6.912455532E0
9.336801667E-1,1.076561279E0,3.971391449E0,6.118077393E0,7.373045857E0
9.436861665E-1,1.060394897E0,3.995042267E0,6.382128296E0,7.603707098E0
9.536921666E-1,1.194665680E0,3.964505768E0,6.424490204E0,7.643206555E0
9.636981667E-1,1.759890289E0,3.665128326E0,6.443350983E0,7.618868116E0
9.737051667E-1,2.140848083E0,3.527863770E0,6.205944672E0,7.452704379E0
9.837111665E-1,1.857786713E0,3.673211517E0,5.767356720E0,7.085637435E0
9.937171666E-1,1.178050232E0,3.667074280E0,5.508544922E0,6.721555124E0
1.003723167E0,6.656657410E-1,3.788471832E0,5.526507568E0,6.733343568E0
1.013729167E0,3.826043701E-1,3.887266388E0,5.732179871E0,6.936505759E0
1.023735167E0,4.535568237E-1,3.953578491E0,5.810317383E0,7.042462976E0
1.033742167E0,7.587721252E-1,3.998036041E0,5.672603760E0,6.981293629E0
1.043748167E0,1.062340851E0,4.044888611E0,5.267546082E0,6.725825873E0
1.053754167E0,1.498982849E0,4.312382355E0,5.417983246E0,7.085064122E0
1.063760167E0,1.758992157E0,4.808899841E0,5.726791077E0,7.682168127E0
1.073766167E0,1.815574493E0,4.947212219E0,6.158493347E0,8.105446304E0
1.083772167E0,1.920805664E0,4.958588562E0,6.765181732E0,8.604927588E0
1.093779167E0,1.778152313E0,4.862189026E0,6.921456757E0,8.643452517E0
1.103785167E0,1.428479462E0,4.743934937E0,6.915169830E0,8.506764722E0
1.113791167E0,1.062490540E0,4.838837585E0,7.302713928E0,8.824560388E0
1.123797167E0,9.262738037E-1,4.984185333E0,7.645501099E0,9.173536594E0
1.133803167E0,9.030720520E-1,4.878505096E0,7.771988068E0,9.220582933E0
1.143809167E0,1.038540344E0,5.324278107E0,8.161328430E0,9.799682911E0
1.153816167E0,1.338965607E0,5.964646454E0,8.401878204E0,1.039044723E1
1.163822167E0,1.415755920E0,6.268065491E0,8.733139343E0,1.084254272E1
1.173828167E0,1.634002075E0,6.309828644E0,8.856333160E0,1.099629653E1
1.183834166E0,1.534608765E0,6.687193909E0,8.532556458E0,1.094888607E1
1.193840167E0,1.325194244E0,6.935078430E0,7.973918152E0,1.065057854E1
1.203846167E0,1.317859497E0,6.683751068E0,7.829318848E0,1.037822314E1
1.213853167E0,9.110055542E-1,6.652166748E0,8.260572052E0,1.064510705E1
1.223859166E0,3.192860413E-1,6.454877014E0,8.876690826E0,1.098011935E1
1.233865167E0,-1.182540894E-2,6.106251984E0,1.006686584E1,1.177404948E1
1.243871167E0,-3.282673645E-1,6.118077393E0,1.098745148E1,1.258025121E1
1.253877167E0,-3.787124634E-1,6.018085327E0,1.145777344E1,1.294763864E1
1.263883167E0,2.704875183E-1,5.815257111E0,1.187106400E1,1.322166930E1
1.273890167E0,9.101074219E-1,5.934259644E0,1.216684891E1,1.356745906E1
1.283896167E0,1.293759613E0,5.692811737E0,1.290436523E1,1.416349397E1
1.293902167E0,1.421444092E0,5.807622986E0,1.389051453E1,1.512267773E1
1.303908167E0,1.096320190E0,6.267616425E0,1.427386734E1,1.562780287E1
1.313914167E0,4.071533203E-1,6.486311646E0,1.392643982E1,1.536827052E1
1.323920167E0,-1.326242065E-1,6.128405914E0,1.351120331E1,1.483669650E1
1.333927167E0,-4.671784973E-1,5.332061920E0,1.375744125E1,1.476198936E1
1.343933167E0,-6.580316162E-1,4.347409515E0,1.406265656E1,1.473401793E1
1.353939167E0,-6.192622375E-1,3.453618164E0,1.375354935E1,1.419405100E1
1.363945167E0,-6.409671021E-1,3.134032745E0,1.283910095E1,1.323161038E1
1.373951167E0,-5.610333252E-1,3.509601746E0,1.178574142E1,1.230998634E1
1.383957167E0,-1.282832336E-1,3.952231293E0,1.081920135E1,1.151918863E1
1.393964167E0,3.267704773E-1,4.146227875E0,9.928553467E0,1.076448598E1
1.403970167E0,5.882766724E-1,4.326004028E0,9.199868774E0,1.018321981E1
1.413976167E0,4.954696655E-1,4.499493256E0,8.468040619E0,9.602012376E0
1.423982167E0,2.555186462E-1,4.630171509E0,7.775430908E0,9.053237199E0
1.433988167E0,3.143463135E-2,4.780309296E0,7.384593658E0,8.796849925E0
1.443994167E0,9.430389404E-2,5.027595062E0,7.018754425E0,8.634148424E0
1.454001167E0,4.101470947E-2,5.156776428E0,6.708599396E0,8.461638800E0
1.464007167E0,-6.526428223E-2,5.417234802E0,6.546785889E0,8.497711327E0
1.474013167E0,2.399510193E-1,4.772824860E0,6.152954865E0,7.790782194E0
1.484019167E0,3.367996216E-1,4.505929871E0,6.373596039E0,7.812782120E0
1.494025167E0,3.382965088E-1,4.243226166E0,6.952741699E0,8.152302126E0
1.504031167E0,3.016227722E-1,4.129013672E0,7.786358185E0,8.818565869E0
1.514038166E0,3.109034729E-1,4.068988495E0,8.738378448E0,9.644303306E0
1.524044167E0,3.173400879E-1,3.858975220E0,8.925938416E0,9.729582266E0
1.534050167E0,2.966830444E-1,3.341201935E0,8.233179016E0,8.890269282E0
1.544056167E0,1.315763855E-1,3.498225403E0,7.621251526E0,8.386797251E0
1.554062167E0,-2.903961182E-2,3.653602295E0,6.910080414E0,7.816576255E0
1.564068167E0,-2.004331970E-1,3.665876770E0,6.381978607E0,7.362640620E0
1.574075167E0,-2.429447937E-1,3.906426544E0,6.008056183E0,7.170490193E0
1.584081167E0,-5.343887329E-2,4.151317291E0,5.492079163E0,6.884709471E0
1.594087167E0,8.382568359E-2,4.128115540E0,5.169200592E0,6.615814342E0
1.604093167E0,4.565505981E-2,3.928281097E0,5.559588776E0,6.807532895E0
1.614099167E0,-3.484753418E-1,4.049379272E0,6.594985657E0,7.746789230E0
1.624105167E0,-6.385720825E-1,4.099974060E0,7.288493500E0,8.386876599E0
1.634112167E0,-5.611830139E-1,3.977079620E0,6.711593170E0,7.821609269E0
1.644118167E0,-6.640191650E-1,4.077520752E0,5.943390656E0,7.238162019E0
1.654124167E0,-7.619155884E-1,4.419709167E0,5.213508453E0,6.877137114E0
1.664130167E0,-6.354286194E-1,5.025050354E0,4.746479645E0,6.941467396E0
1.674136167E0,-4.496649170E-1,5.379662933E0,4.937781830E0,7.316055031E0
1.684142167E0,-1.537303162E-1,5.723797302E0,5.009033661E0,7.607621625E0
1.694148167E0,-3.204835510E-1,5.931415558E0,5.362748108E0,8.002716257E0
1.704155167E0,-9.815089417E-1,5.384602661E0,5.825735321E0,7.993528486E0
1.714161167E0,-1.049317932E0,4.921166382E0,6.059249725E0,7.876131913E0
1.724167167E0,-1.410965881E0,4.788691864E0,6.377787323E0,8.099294144E0
1.734173167E0,-1.241817627E0,4.920118561E0,6.404431915E0,8.171072502E0
1.744179167E0,-6.613247681E-1,5.434299316E0,6.881489868E0,8.793398792E0
1.754185167E0,-5.764512634E-1,6.002966766E0,7.814948730E0,9.871237497E0
1.764192167E0,-5.119354248E-1,6.502178650E0,8.549471283E0,1.075331876E1
1.774198167E0,-5.879772949E-1,6.666686554E0,8.960666199E0,1.118409431E1
1.784204167E0,-7.244934082E-1,6.558611298E0,8.020770721E0,1.038619448E1
1.794210167E0,-1.179696808E0,6.734495544E0,6.688092041E0,9.564292444E0
1.804216166E0,-1.434766388E0,7.211254120E0,6.322552185E0,9.697185504E0
1.814222167E0,-1.191222839E0,7.635771332E0,6.177653503E0,9.893807078E0
1.824229167E0,-1.196461945E0,7.920030212E0,6.494843903E0,1.031219652E1
1.834235167E0,-1.426234131E0,7.444169769E0,7.210655365E0,1.046151797E1
1.844241625E0,-1.687590637E0,6.497538300E0,8.464747467E0,1.080360661E1
1.854247625E0,-1.611399078E0,5.922733612E0,9.980944519E0,1.171727929E1
1.864253625E0,-1.184486847E0,6.206244049E0,1.056323364E1,1.230863028E1
1.874259625E0,8.427474976E-2,7.155869293E0,1.119551880E1,1.328733264E1
1.884265625E0,9.719288635E-1,7.482490082E0,1.229588058E1,1.442639882E1
1.894272625E0,1.303040314E0,6.863676910E0,1.323338104E1,1.496430248E1
1.904278625E0,1.468296661E0,5.967789917E0,1.349234253E1,1.482611610E1
1.914284625E0,1.470092926E0,5.575755157E0,1.360326187E1,1.477494340E1
1.924290625E0,2.149380341E0,5.588778076E0,1.352093307E1,1.478749159E1
1.934296625E0,3.038980408E0,5.701643372E0,1.335717361E1,1.483772981E1
1.944302625E0,3.811823273E0,5.700894928E0,1.292786636E1,1.463420406E1
1.954309625E0,4.388873291E0,5.410049744E0,1.251382736E1,1.432224571E1
1.964315625E0,4.692741394E0,5.034031677E0,1.232851273E1,1.411933153E1
1.974321625E0,4.982538757E0,4.727169800E0,1.238359818E1,1.416069668E1
1.984327625E0,4.931345215E0,4.445755005E0,1.239632172E1,1.406242139E1
1.994333625E0,4.675676880E0,4.069138184E0,1.194066925E1,1.345360257E1
2.004339625E0,4.137396240E0,3.664529572E0,1.100032471E1,1.231072574E1
2.014345625E0,3.570974121E0,3.335513763E0,9.933493195E0,1.107031144E1
2.024352625E0,3.161425781E0,3.130589905E0,9.153914337E0,1.017788553E1
2.034358625E0,2.898123322E0,3.064726868E0,8.559799805E0,9.542632879E0
2.044364625E0,2.907104645E0,3.146756287E0,7.937543793E0,9.019863303E0
2.054370625E0,3.067271576E0,3.311862946E0,7.543413391E0,8.790886001E0
2.064376625E0,3.038381653E0,3.431763611E0,7.667205963E0,8.932794178E0
2.074382625E0,2.825224915E0,3.398233337E0,8.192763062E0,9.308665437E0
2.084389625E0,2.751727753E0,3.568728790E0,8.499026184E0,9.619837674E0
2.094395625E0,2.359094238E0,3.434458008E0,8.371940460E0,9.351481941E0
2.104401625E0,1.837728424E0,3.140619049E0,8.531358948E0,9.274956564E0
2.114407625E0,1.354084167E0,2.773582306E0,8.908724213E0,9.428237897E0
2.124413625E0,9.157955933E-1,2.755769348E0,9.039402466E0,9.494405890E0
2.134419625E0,6.153703308E-1,3.230132904E0,8.438402252E0,9.056438140E0
2.144425625E0,7.604187012E-1,3.700305176E0,7.043153687E0,7.992278076E0
2.154432625E0,1.062939606E0,3.979175262E0,5.725743256E0,7.053212899E0
2.164438625E0,1.232087860E0,4.113296356E0,4.956343231E0,6.557635674E0
2.174444625E0,1.395997009E0,4.205504608E0,4.778063965E0,6.516515320E0
2.184450625E0,1.547182617E0,3.911366272E0,5.084327087E0,6.598707608E0
2.194456625E0,1.091829529E0,3.406615906E0,5.375621338E0,6.457122302E0
2.204462625E0,2.460882568E-1,3.178490295E0,5.693260803E0,6.525073069E0
2.214469625E0,-3.799099731E-1,3.314707031E0,5.973029022E0,6.841687657E0
2.224475625E0,-5.607339478E-1,3.630849609E0,6.218069458E0,7.222318134E0
2.234481625E0,-4.023632813E-1,3.911665649E0,6.311924286E0,7.436626423E0
2.244487625E0,2.157014465E-1,4.093836823E0,6.144123230E0,7.386222127E0
2.254493625E0,8.698411560E-1,4.485721893E0,5.628295898E0,7.249554418E0
2.264499625E0,1.250200195E0,4.845723267E0,4.782704315E0,6.922304174E0
2.274505625E0,1.588945770E0,4.963228912E0,4.058510284E0,6.605293001E0
2.284512625E0,1.475631409E0,4.899910583E0,3.673959961E0,6.299570904E0
2.294518625E0,1.103954315E0,4.723427582E0,3.594325562E0,6.037272521E0
2.304524625E0,6.966513062E-1,4.696034546E0,3.744912415E0,6.046687729E0
2.314530625E0,3.710783386E-1,4.860991516E0,3.960314484E0,6.281005370E0
2.324536625E0,3.718267822E-1,5.212011566E0,4.330943756E0,6.786780794E0
2.334542625E0,5.616320801E-1,5.632936249E0,4.650828552E0,7.326363873E0
2.344548625E0,7.830216980E-1,5.969436493E0,4.899910583E0,7.762500805E0
2.354555625E0,1.065933380E0,6.145171051E0,5.221142578E0,8.133859541E0
2.364561625E0,1.275796967E0,6.275699615E0,5.730682983E0,8.593764659E0
2.374567625E0,1.271905060E0,6.460415497E0,6.252797241E0,9.080318508E0
2.384573625E0,9.764195251E-1,6.697971497E0,6.456822968E0,9.354505871E0
2.394579625E0,5.451663208E-1,6.720724182E0,6.681505737E0,9.492515935E0
2.404585625E0,2.372566223E-1,6.683152313E0,7.531737671E0,1.007213423E1
2.414592625E0,1.666035461E-1,6.746470642E0,8.461304626E0,1.082295241E1
2.424598625E0,2.101629639E-1,6.874454498E0,9.147926788E0,1.144494900E1
2.434604625E0,3.314108276E-1,7.056176605E0,9.651180267E0,1.196013135E1
2.444610625E0,3.959266663E-1,7.223827972E0,9.771080933E0,1.215789748E1
2.454616625E0,4.605921936E-1,7.312743073E0,9.533225555E0,1.202375756E1
2.464622625E0,7.047344971E-1,7.323221283E0,9.336384888E0,1.188672804E1
2.474628625E0,1.119671631E0,7.429949341E0,9.649533691E0,1.222993509E1
2.484635625E0,1.632355499E0,7.560926971E0,1.012599289E1,1.274236764E1
2.494641625E0,1.810784454E0,7.630681915E0,1.058404037E1,1.317300867E1
2.504647625E0,1.568887482E0,7.517217865E0,1.085737198E1,1.329859010E1
2.514653625E0,1.162332916E0,7.274871826E0,1.087787933E1,1.313784749E1
2.524659625E0,9.559121704E-1,7.056625671E0,1.094553864E1,1.305812199E1
2.534665625E0,9.536668396E-1,6.953939209E0,1.097906891E1,1.303099018E1
2.544671625E0,1.048719177E0,6.832691345E0,1.104837479E1,1.303273066E1
2.554678625E0,1.080752563E0,6.523434448E0,1.135239258E1,1.313773346E1
2.564684625E0,1.005908203E0,6.101312256E0,1.165985321E1,1.319810742E1
2.574690625E0,7.223977661E-1,5.654491425E0,1.183873123E1,1.313966092E1
2.584696625E0,4.480183411E-1,5.054688721E0,1.194411209E1,1.297738079E1
2.594702625E0,1.710942078E-1,4.474944305E0,1.218870346E1,1.298533372E1
2.604708625E0,-7.334747314E-2,4.030668182E0,1.270198608E1,1.332636921E1
2.614714625E0,-3.098556519E-2,3.787124634E0,1.317485275E1,1.370839225E1
2.624721625E0,1.507365417E-1,3.690276031E0,1.311437851E1,1.362452870E1
2.634727625E0,4.143383789E-1,3.709735565E0,1.250589386E1,1.305109940E1
2.644733625E0,5.526507568E-1,3.871998138E0,1.154354507E1,1.218815923E1
2.654739625E0,6.307882690E-1,4.036506042E0,1.045919998E1,1.122880845E1
2.664745625E0,7.622149658E-1,4.141437836E0,9.343270569E0,1.024837470E1
2.674751625E0,7.863148499E-1,4.266876984E0,8.338559875E0,9.399793138E0
2.684757625E0,9.553134155E-1,4.344266052E0,7.698041840E0,8.890732221E0
2.694764625E0,1.286424866E0,4.348457336E0,7.652237091E0,8.894981880E0
2.704770625E0,1.516496429E0,4.289929047E0,7.879165192E0,9.098598615E0
2.714776625E0,1.575473785E0,4.162543945E0,8.134983215E0,9.272909018E0
2.724782625E0,1.465452576E0,3.987857208E0,8.392597504E0,9.406712987E0
2.734788625E0,1.327140198E0,3.764222260E0,8.737180939E0,9.605675462E0
2.744794625E0,1.172062683E0,3.570075989E0,9.042246552E0,9.791904626E0
2.754800625E0,9.756710815E-1,3.382965088E0,9.270372162E0,9.916460400E0
2.764807625E0,7.816744995E-1,3.286715240E0,9.355844421E0,9.947127069E0
2.774813625E0,6.279441833E-1,3.235222321E0,9.287736053E0,9.855101134E0
2.784819625E0,6.354286194E-1,3.218157806E0,8.975635071E0,9.556271978E0
2.794825625E0,5.987548828E-1,3.229683838E0,8.517737274E0,9.129140889E0
2.804831625E0,5.287005615E-1,3.202590179E0,7.993377686E0,8.627293606E0
2.814837625E0,4.414320374E-1,3.178639984E0,7.541916504E0,8.196286900E0
2.824843625E0,2.061213684E-1,3.156635742E0,7.195836182E0,7.860463955E0
2.834850625E0,9.041198730E-2,3.146157532E0,6.891668701E0,7.576382978E0
2.844856250E0,7.394622803E-2,3.196602631E0,6.645281067E0,7.374516722E0
2.854862250E0,1.079255676E-1,3.386108551E0,6.433471527E0,7.270965200E0
2.864868250E0,1.907034302E-1,3.660487976E0,6.163133698E0,7.170757073E0
2.874874250E0,3.902384949E-1,3.927981720E0,5.886658630E0,7.087600180E0
2.884880250E0,5.219645691E-1,4.072131958E0,5.647006989E0,6.981646913E0
2.894886250E0,6.448590088E-1,4.270020447E0,5.541775818E0,7.025681246E0
2.904892250E0,5.557942200E-1,4.498295746E0,5.602998505E0,7.206744346E0
2.914899250E0,3.667373657E-1,4.703818359E0,5.595514069E0,7.319165331E0
2.924905250E0,1.056802368E-1,4.848267975E0,5.608387299E0,7.414234873E0
2.934911250E0,-1.892065430E-1,4.872068481E0,5.736969910E0,7.528988919E0
2.944917250E0,-4.230203247E-1,4.847669220E0,6.074667664E0,7.783343130E0
2.954923250E0,-7.005432129E-1,4.839286652E0,6.469696198E0,8.109650114E0
2.964929250E0,-8.494834900E-1,4.868475952E0,6.860234070E0,8.454968468E0
2.974935250E0,-8.156538391E-1,5.036277008E0,7.329657898E0,8.930468195E0
2.984942250E0,-6.496490479E-1,5.262007599E0,8.001011810E0,9.598278900E0
2.994948250E0,-3.351530457E-1,5.481750641E0,8.523425446E0,1.013956108E1
3.004954250E0,-2.314187622E-1,5.744903412E0,8.698860626E0,1.042725496E1
3.014960250E0,-3.293151855E-1,6.054459686E0,8.516988831E0,1.045485673E1
3.024966250E0,-5.183720398E-1,6.306236115E0,8.135132904E0,1.030619769E1
3.034972250E0,-4.626878357E-1,6.489305420E0,7.873177643E0,1.021332909E1
3.044978250E0,-2.689906311E-1,6.619085541E0,7.815397797E0,1.024524729E1
3.054985250E0,-1.670526123E-1,6.707551575E0,7.670948181E0,1.019130025E1
3.064991250E0,8.098159790E-2,6.737040253E0,7.598947906E0,1.015570178E1
3.074997250E0,5.635780334E-1,6.844666443E0,7.745493164E0,1.035179904E1
3.085003250E0,9.602531433E-1,6.943610687E0,8.556955719E0,1.106152370E1
3.095009250E0,1.270557861E0,6.942712555E0,9.600585480E0,1.191582211E1
3.105015250E0,1.485361176E0,6.885381775E0,1.006671616E1,1.228631573E1
3.115021250E0,1.625469818E0,6.650669861E0,9.864636383E0,1.200768973E1
3.125027250E0,1.887874146E0,6.261778564E0,9.574090576E0,1.159470353E1
3.135034250E0,2.311493225E0,5.956114197E0,9.769134979E0,1.167280153E1
3.145040250E0,2.788551178E0,5.758824463E0,1.066232758E1,1.243484243E1
3.155046250E0,3.196303253E0,5.485941925E0,1.177780792E1,1.338015967E1
3.165052250E0,3.647914124E0,5.059329071E0,1.280422348E1,1.424262009E1
3.175058250E0,3.724405060E0,4.722679138E0,1.387928787E1,1.512645111E1
3.185064250E0,3.597768402E0,4.475992126E0,1.463596436E1,1.572227387E1
3.195070250E0,3.497177582E0,4.192631378E0,1.488908798E1,1.585854186E1
3.205077250E0,3.523672485E0,3.843407593E0,1.469973175E1,1.559712035E1
3.215083250E0,3.693718872E0,3.696113892E0,1.419632858E1,1.512747706E1
3.225089250E0,3.920646973E0,3.688180389E0,1.350581451E1,1.453895364E1
3.235095250E0,4.109105072E0,3.713328094E0,1.247565674E1,1.364974582E1
3.245101250E0,4.107608185E0,3.785627747E0,1.114881592E1,1.246994462E1
3.255107250E0,4.122127991E0,3.902534637E0,9.731413422E0,1.126597190E1
3.265113250E0,4.186045074E0,4.024980011E0,8.580756226E0,1.036112035E1
3.275119250E0,4.148473206E0,4.052971802E0,7.802674255E0,9.722043813E0
3.285126250E0,3.792663116E0,3.867357788E0,7.657176819E0,9.379397988E0
3.295132250E0,3.248843994E0,3.502566376E0,8.039930878E0,9.352189425E0
3.305138250E0,2.661016388E0,3.171604614E0,8.575367432E0,9.522447723E0
3.315144250E0,2.080224152E0,2.909200287E0,8.998387756E0,9.683065684E0
3.325150250E0,1.530417480E0,2.686313782E0,9.076225891E0,9.588343748E0
3.335156250E0,1.057850189E0,2.640359344E0,8.819360046E0,9.266696073E0
3.345162250E0,8.418493652E-1,2.816692657E0,8.382119293E0,8.882701826E0
3.355169250E0,8.214916992E-1,3.127895508E0,7.949668579E0,8.582296280E0
3.365175250E0,1.032403107E0,3.533402252E0,7.501051483E0,8.355630497E0
3.375181250E0,1.309776306E0,3.922143860E0,7.105424194E0,8.221057074E0
3.385187250E0,1.492396545E0,4.157753906E0,6.737938385E0,8.056921166E0
3.395193250E0,1.633253632E0,4.288282471E0,6.436165924E0,7.904499717E0
3.405199250E0,1.676962738E0,4.287234650E0,6.281687164E0,7.787950860E0
3.415205250E0,1.590292969E0,4.209845581E0,6.230194244E0,7.685515719E0
3.425211250E0,1.380728760E0,4.070335693E0,6.168223114E0,7.518046352E0
3.435218250E0,1.128802643E0,3.900888062E0,6.024222565E0,7.265148353E0
3.445224250E0,9.741741943E-1,3.748654633E0,5.755082245E0,6.937030961E0
3.455230250E0,8.613088989E-1,3.647315369E0,5.523513794E0,6.674875808E0
3.465236250E0,7.614665222E-1,3.615132294E0,5.463638306E0,6.595479990E0
3.475242250E0,8.117619324E-1,3.601959686E0,5.315147095E0,6.471774073E0
3.485248250E0,9.116043091E-1,3.647914124E0,5.012326813E0,6.265917327E0
3.495254250E0,9.460327148E-1,3.778592377E0,4.747677155E0,6.141105488E0
3.505261250E0,8.812174988E-1,3.911216583E0,4.644092560E0,6.135287699E0
3.515267250E0,8.409512329E-1,3.980223083E0,4.833299103E0,6.317448455E0
3.525273250E0,7.714956665E-1,3.992796936E0,5.208718414E0,6.608205540E0
3.535279250E0,6.755451965E-1,4.054169312E0,5.580096130E0,6.930376825E0
3.545285250E0,5.589376831E-1,4.057612152E0,5.966742096E0,7.237308820E0
3.555291250E0,6.039939880E-1,4.115242310E0,6.049969025E0,7.341808579E0
3.565297250E0,6.801855469E-1,4.359534302E0,5.879024506E0,7.350586429E0
3.575303250E0,8.271798706E-1,4.741689606E0,5.639672241E0,7.414428491E0
3.585309250E0,1.227148132E0,5.170547791E0,5.486241302E0,7.638016799E0
3.595316250E0,1.848955078E0,5.489085388E0,5.636678467E0,8.082130747E0
3.605322250E0,2.425705719E0,5.614374847E0,6.312373352E0,8.789272467E0
3.615328250E0,2.486778717E0,6.154900818E0,7.248825989E0,9.829158188E0
3.625334250E0,2.209255829E0,6.886878662E0,7.647297363E0,1.052573351E1
3.635340250E0,2.062411194E0,6.930587769E0,7.494764557E0,1.041432103E1
3.645346250E0,1.820813599E0,6.691385193E0,7.225175171E0,1.001464698E1
3.655352250E0,1.141526184E0,6.569987640E0,7.053482208E0,9.706669402E0
3.665359250E0,1.555265808E-1,6.621181183E0,7.066056061E0,9.684698087E0
3.675365250E0,-6.113287354E-1,6.699618073E0,7.173233185E0,9.834321505E0
3.685371250E0,-7.738906860E-1,6.813082123E0,7.125632172E0,9.888964994E0
3.695377250E0,-5.791456604E-1,7.017257538E0,7.050189056E0,9.964059352E0
3.705383250E0,-2.624043274E-1,7.330705719E0,7.128775635E0,1.022876065E1
3.715389250E0,1.615141296E-1,7.586823120E0,7.696245575E0,1.080824536E1
3.725395250E0,7.827223206E-1,7.587571564E0,8.982371063E0,1.178417950E1
3.735401250E0,1.112935638E0,7.310647430E0,1.030906219E1,1.268703886E1
3.745408250E0,8.637039185E-1,6.984475708E0,1.097023727E1,1.303361006E1
3.755414250E0,5.227130127E-1,6.661447449E0,1.113025452E1,1.298193655E1
3.765420250E0,2.829116821E-1,6.518045654E0,1.094329330E1,1.274051123E1
3.775426250E0,1.922003174E-1,6.587800598E0,1.082264420E1,1.267145158E1
3.785432250E0,2.893482971E-1,6.500083008E0,1.100481537E1,1.278439529E1
3.795438250E0,4.228706360E-1,6.201903076E0,1.145043869E1,1.302900486E1
3.805444250E0,5.806425476E-1,5.709127808E0,1.191507248E1,1.322498538E1
3.815450250E0,7.741900635E-1,5.232818298E0,1.218451218E1,1.328322606E1
3.825456250E0,8.547225952E-1,4.824018402E0,1.257130783E1,1.349220089E1
3.835463250E0,9.616003418E-1,4.428690491E0,1.309611649E1,1.385807496E1
3.845469875E0,1.197509766E0,4.073928223E0,1.365595230E1,1.430090746E1
3.855475875E0,1.454824677E0,3.730392609E0,1.404649017E1,1.460603403E1
3.865481875E0,1.568887482E0,3.447480927E0,1.399110535E1,1.449474255E1
3.875487875E0,1.444795532E0,3.396886139E0,1.341420502E1,1.391284176E1
3.885493875E0,1.110989685E0,3.539689178E0,1.240171051E1,1.294473334E1
3.895499875E0,7.304809570E-1,3.724854126E0,1.123458755E1,1.185850320E1
3.905505875E0,6.195616150E-1,3.747307434E0,1.017718643E1,1.086284002E1
3.915512875E0,7.327262878E-1,3.743265839E0,9.279203796E0,1.003257445E1
3.925518875E0,8.113128662E-1,3.880380707E0,8.685538330E0,9.547468726E0
3.935524875E0,9.065148926E-1,4.043541412E0,8.390052795E0,9.357616273E0
3.945530875E0,1.140628052E0,4.191583557E0,8.313561859E0,9.380070141E0
3.955536875E0,1.370400238E0,4.235741730E0,8.380472717E0,9.489564151E0
3.965542875E0,1.462907867E0,4.119283905E0,8.474776611E0,9.535745274E0
3.975548875E0,1.353485413E0,3.904031525E0,8.628955994E0,9.567249680E0
3.985554875E0,1.291364594E0,3.656296692E0,8.875193939E0,9.685308228E0
3.995561875E0,1.334175568E0,3.409010925E0,9.000633087E0,9.716623688E0
4.005567875E0,1.149908752E0,3.172802124E0,8.928782501E0,9.545266911E0
4.015573875E0,8.309220886E-1,2.998414764E0,8.715775452E0,9.254494278E0
4.025579875E0,5.453160095E-1,2.927162933E0,8.367749176E0,8.881715975E0
4.035585875E0,3.472778320E-1,2.911744995E0,7.938441925E0,8.462725389E0
4.045591875E0,1.942959595E-1,2.887345734E0,7.351063385E0,7.900167669E0
4.055597875E0,5.822891235E-2,2.919528809E0,6.664291534E0,7.275975586E0
4.065603875E0,5.613327026E-2,3.081641693E0,6.119125214E0,6.851522448E0
4.075610875E0,1.070274353E-1,3.285667419E0,5.706433411E0,6.585624309E0
4.085616875E0,1.721420288E-1,3.566483459E0,5.399122467E0,6.473017886E0
4.095622875E0,2.149530029E-1,3.911965027E0,5.267995148E0,6.565169308E0
4.105628875E0,1.287322998E-1,4.271217957E0,5.176535339E0,6.712405899E0
4.115634875E0,-1.302291870E-2,4.542004852E0,5.016069031E0,6.766899304E0
4.125640875E0,-2.019300842E-1,4.798571320E0,4.889881439E0,6.854050113E0
4.135646875E0,-5.279521179E-1,5.059478760E0,4.795876923E0,6.991244111E0
4.145652875E0,-7.497908020E-1,5.297184448E0,4.667743378E0,7.100012505E0
4.155658875E0,-8.394543457E-1,5.469027100E0,4.723128204E0,7.274811410E0
4.165665875E0,-9.253756714E-1,5.537883911E0,5.143454132E0,7.614433581E0
4.175671875E0,-8.533753967E-1,5.403164062E0,5.886059875E0,8.035429815E0
4.185677875E0,-8.190966797E-1,5.141358490E0,6.617139587E0,8.419680684E0
4.195683875E0,-1.037193146E0,4.882247314E0,7.261998596E0,8.811851796E0
4.205689875E0,-1.291214905E0,4.633015594E0,7.844138031E0,9.201226596E0
4.215695875E0,-1.158141632E0,4.384382629E0,8.448730774E0,9.588803615E0
4.225701875E0,-8.473878479E-1,4.249662781E0,8.743467865E0,9.758377438E0
4.235707875E0,-5.920188904E-1,4.240082703E0,8.820108490E0,9.804238954E0
4.245714875E0,-1.083746338E-1,4.455335083E0,8.379873962E0,9.491261422E0
4.255720875E0,3.471281433E-1,4.801415405E0,7.644153900E0,9.033669060E0
4.265726875E0,5.836363220E-1,5.055886230E0,7.157216492E0,8.782275607E0
4.275732875E0,7.939489746E-1,5.143603821E0,6.812782745E0,8.573273819E0
4.285738875E0,1.040486298E0,5.090464325E0,6.679110718E0,8.462030416E0
4.295744875E0,1.378633118E0,4.902006226E0,6.780449982E0,8.479669585E0
4.305750875E0,1.646725616E0,4.690795441E0,7.437882843E0,8.946360618E0
4.315756875E0,1.818268890E0,4.615651703E0,8.256979523E0,9.632655565E0
4.325762875E0,1.896107025E0,4.686604156E0,9.225016479E0,1.051952515E1
4.335769875E0,2.029779053E0,4.690346375E0,1.071486832E1,1.187129964E1
4.345775875E0,2.121987305E0,4.599485321E0,1.192854446E1,1.295948565E1
4.355781875E0,1.922302551E0,4.640649719E0,1.203512283E1,1.304128286E1
4.365787875E0,2.003882904E0,4.871619415E0,1.140328674E1,1.256117713E1
4.375793875E0,2.434836731E0,5.260660400E0,1.083267334E1,1.228616252E1
4.385799875E0,2.987038422E0,5.712271271E0,1.071576645E1,1.250520260E1
4.395805875E0,3.671415253E0,6.038592682E0,1.140223892E1,1.341472862E1
4.405811875E0,4.254752197E0,5.954766998E0,1.264240997E1,1.460796687E1
4.415817875E0,4.768633575E0,5.390290833E0,1.412911835E1,1.585645253E1
4.425824875E0,5.115462341E0,4.627926178E0,1.501826935E1,1.652676828E1
4.435830875E0,4.914280701E0,4.037404175E0,1.508532990E1,1.637125424E1
4.445836875E0,4.601730652E0,3.645668793E0,1.435948929E1,1.551327685E1
4.455842875E0,4.304748230E0,3.433559875E0,1.323832077E1,1.433782855E1
4.465848875E0,4.373455353E0,3.596870270E0,1.204111038E1,1.330612365E1
4.475854875E0,4.876110077E0,3.950435028E0,1.101574265E1,1.267789306E1
4.485860875E0,5.602998505E0,4.225562897E0,1.032328262E1,1.248275363E1
4.495866875E0,6.487658844E0,4.385879517E0,9.710007935E0,1.247437014E1
4.505872875E0,6.806346130E0,4.311334534E0,9.411828003E0,1.238936881E1
4.515879875E0,6.442752228E0,4.051175537E0,9.492360535E0,1.216659311E1
4.525885875E0,5.328918457E0,3.490291901E0,9.622140656E0,1.153971838E1
4.535891875E0,4.124523010E0,2.818937988E0,9.613309021E0,1.083391950E1
4.545897875E0,3.175346832E0,2.500400391E0,9.629475403E0,1.044325745E1
4.555903875E0,2.243384857E0,2.320324860E0,9.580676880E0,1.010970091E1
4.565909875E0,1.485211487E0,2.258204041E0,9.400900726E0,9.781731601E0
4.575915875E0,9.689350891E-1,2.406395874E0,9.080866241E0,9.444136170E0
4.585921875E0,8.099656677E-1,2.649490356E0,8.676107941E0,9.107727078E0
4.595927875E0,9.190887451E-1,2.971770172E0,8.159831543E0,8.732639514E0
4.605934875E0,1.213825836E0,3.376977539E0,7.517966309E0,8.330496256E0
4.615940875E0,1.543590088E0,3.759132843E0,6.792874146E0,7.915610479E0
4.625946875E0,1.785337372E0,3.972738647E0,6.077212372E0,7.476803602E0
4.635952875E0,1.871707764E0,4.051325226E0,5.595813446E0,7.157489376E0
4.645958875E0,1.795216827E0,4.041296082E0,5.389542389E0,6.971516667E0
4.655964875E0,1.741179199E0,3.971690826E0,5.362299042E0,6.896396453E0
4.665970875E0,1.809137878E0,3.892056427E0,5.337600403E0,6.849164997E0
4.675976875E0,1.838177490E0,3.868704987E0,5.411097565E0,6.901141327E0
4.685982875E0,1.830243988E0,3.942950592E0,5.555247803E0,7.053894710E0
4.695989875E0,1.934427338E0,4.048032074E0,5.682183838E0,7.239874720E0
4.705995875E0,1.943109283E0,4.117188263E0,5.707032166E0,7.300488273E0
4.716001875E0,1.851499786E0,4.156556396E0,5.547164612E0,7.174681022E0
4.726007875E0,1.526076508E0,4.125421143E0,5.177433472E0,6.793660756E0
4.736013875E0,1.216669922E0,4.146976318E0,4.873864746E0,6.514004594E0
4.746019875E0,1.148112488E0,4.289479980E0,4.631219330E0,6.416073041E0
4.756025875E0,1.096769257E0,4.528233490E0,4.434678040E0,6.432275698E0
4.766031875E0,1.045426025E0,4.883744202E0,4.448898468E0,6.688540243E0
4.776037875E0,9.440867615E-1,5.201084290E0,4.632566528E0,7.028744571E0
4.786044875E0,1.123862915E0,5.535339203E0,5.120701447E0,7.623951157E0
4.796050875E0,1.375339966E0,5.847290497E0,5.601501617E0,8.213354159E0
4.806056875E0,1.482068024E0,6.168073425E0,6.212680664E0,8.879136019E0
4.816062875E0,1.601220245E0,6.485114136E0,7.195836182E0,9.818384286E0
4.826068875E0,1.674567719E0,6.571634216E0,8.212671661E0,1.065075251E1
4.836074875E0,1.763782196E0,6.354585571E0,9.158105621E0,1.128550327E1
4.846080750E0,1.884431305E0,6.230942688E0,9.818232880E0,1.178021328E1
4.856086750E0,1.790277100E0,6.342460785E0,1.002525238E1,1.199739914E1
4.866092750E0,1.581760712E0,6.466253357E0,9.778864746E0,1.182964899E1
4.876099750E0,1.377136230E0,6.518195343E0,9.368717651E0,1.149592298E1
4.886105750E0,1.177451477E0,6.582711182E0,8.987759857E0,1.120260263E1
4.896111750E0,1.097966766E0,6.681805115E0,8.649912415E0,1.098512792E1
4.906117750E0,9.515711975E-1,6.726262665E0,8.399782562E0,1.080298312E1
4.916123750E0,6.975494385E-1,6.622229004E0,8.428223419E0,1.074129611E1
4.926129750E0,5.709127808E-1,6.432423706E0,8.873098297E0,1.097423754E1
4.936135750E0,5.429209900E-1,6.308032379E0,9.492061157E0,1.140987558E1
4.946141750E0,3.329077148E-1,6.061045990E0,9.815239105E0,1.154062497E1
4.956147750E0,-5.239105225E-2,5.702391815E0,9.604627075E0,1.116999904E1
4.966153750E0,-4.779560852E-1,5.572611694E0,9.320218506E0,1.086963275E1
4.976160750E0,-7.948471069E-1,5.546266479E0,9.264833679E0,1.082728022E1
4.986166750E0,-1.085692291E0,5.352120209E0,9.125922546E0,1.063514837E1
4.996172750E0,-1.329684906E0,5.200036469E0,9.206604767E0,1.065692322E1
5.006178750E0,-1.523531799E0,5.108876038E0,9.923164673E0,1.126458879E1
5.016184750E0,-1.331181793E0,4.988526306E0,1.123877884E1,1.236800669E1
5.026190750E0,-6.779402161E-1,4.875361633E0,1.246907043E1,1.340546424E1
5.036196750E0,5.987548828E-4,5.007985840E0,1.375863876E1,1.464172337E1
5.046202750E0,8.777746582E-1,5.187911682E0,1.491438538E1,1.581530294E1
5.056208750E0,1.729653168E0,5.160967712E0,1.538755142E1,1.632188796E1
5.066214750E0,2.212848358E0,4.904401245E0,1.510493912E1,1.603461989E1
5.076221750E0,2.368075562E0,4.537214813E0,1.424782150E1,1.513917163E1
5.086227750E0,2.172432404E0,4.163142700E0,1.305405396E1,1.387297893E1
5.096233750E0,1.802401886E0,3.868854675E0,1.179861465E1,1.254687199E1
5.106239750E0,1.451980591E0,3.721560974E0,1.082788330E1,1.154128764E1
5.116245750E0,1.377585297E0,3.732338562E0,1.003183868E1,1.079193587E1
5.126251750E0,1.547781372E0,3.972439270E0,9.287286987E0,1.021908022E1
5.136257750E0,1.706002350E0,4.247567139E0,8.627159729E0,9.766276445E0
5.146263750E0,2.093845825E0,4.452640686E0,8.045469360E0,9.430788761E0
5.156269750E0,2.660567322E0,4.706213379E0,7.529043274E0,9.268956547E0
5.166276750E0,2.939437408E0,4.902754669E0,7.072043610E0,9.093464491E0
5.176282750E0,2.916834412E0,4.877157898E0,6.850055237E0,8.900440938E0
5.186288750E0,2.808160400E0,4.589007111E0,7.164251862E0,8.959422740E0
5.196294750E0,2.772833862E0,4.152365112E0,7.775730286E0,9.240818423E0
5.206300750E0,2.552192688E0,3.673211517E0,8.179740143E0,9.322784947E0
5.216306750E0,2.140399017E0,3.312312012E0,8.252937927E0,9.146786498E0
5.226312750E0,1.646875305E0,3.150797882E0,8.079149323E0,8.826798929E0
5.236318750E0,1.265767822E0,3.082539825E0,7.692054291E0,8.382834793E0
5.246324750E0,1.008003845E0,3.051254883E0,7.296876068E0,7.973119118E0
5.256330750E0,9.955796814E-1,3.173251190E0,6.712491302E0,7.491210950E0
5.266337750E0,1.070274353E0,3.399131470E0,6.215973816E0,7.165047970E0
5.276343750E0,1.061891785E0,3.608096924E0,5.869444427E0,6.971108625E0
5.286349750E0,1.046174469E0,3.742517395E0,5.703888702E0,6.901830467E0
5.296355750E0,1.005010071E0,3.752995605E0,5.548661499E0,6.773674460E0
5.306361750E0,8.952882385E-1,3.690874786E0,5.319039001E0,6.535768786E0
5.316367750E0,7.494914246E-1,3.603905640E0,5.011578369E0,6.218182291E0
5.326373750E0,6.167175293E-1,3.737427979E0,4.828359375E0,6.136918010E0
5.336379750E0,6.948550415E-1,4.168980560E0,4.750221863E0,6.358288306E0
5.346385750E0,7.005432129E-1,4.776567078E0,4.610262909E0,6.675393466E0
5.356391750E0,9.229806519E-1,5.502557373E0,4.465962982E0,7.146667495E0
5.366398750E0,9.219328308E-1,6.125561829E0,4.574636993E0,7.700634486E0
5.376404750E0,8.574169922E-1,6.670428772E0,4.739294586E0,8.227435632E0
5.386410750E0,7.234455872E-1,7.123985596E0,4.979694672E0,8.721920850E0
5.396416750E0,7.090754700E-1,7.487579498E0,5.575455780E0,9.362282944E0
5.406422750E0,7.918533325E-1,7.798632660E0,6.458319855E0,1.015655446E1
5.416428750E0,7.500901794E-1,8.143216095E0,7.554190979E0,1.113285251E1
5.426434750E0,9.086105347E-1,8.386011200E0,8.622968445E0,1.206260095E1
5.436440750E0,1.134490814E0,8.377029877E0,9.345815277E0,1.260182376E1
5.446446750E0,1.002465363E0,8.306227112E0,1.005279510E1,1.307887744E1
5.456452750E0,9.967771912E-1,8.153095551E0,1.059406952E1,1.340525422E1
5.466459750E0,1.007255402E0,7.885601807E0,1.059032730E1,1.324206599E1
5.476465750E0,6.560856628E-1,7.586673431E0,1.034094589E1,1.284224373E1
5.486471750E0,4.556524658E-1,7.380701752E0,1.053628967E1,1.287228719E1
5.496477750E0,5.724096680E-1,7.111561432E0,1.106424179E1,1.316508280E1
5.506483750E0,8.123606873E-1,6.713239746E0,1.158815231E1,1.341688458E1
5.516489750E0,1.146914978E0,6.361321564E0,1.215786758E1,1.376937073E1
5.526495750E0,1.523531799E0,6.320606232E0,1.277159134E1,1.433125108E1
5.536501750E0,2.061662750E0,6.271807709E0,1.364517471E1,1.515839102E1
5.546507750E0,1.706002350E0,4.863835602E0,1.469000198E1,1.556802810E1
5.556513750E0,1.199455719E0,4.194727020E0,1.452010529E1,1.516139460E1
5.566519750E0,1.777852936E0,4.935835876E0,1.313264053E1,1.414176383E1
5.576526750E0,2.476001129E0,6.071973267E0,1.178020294E1,1.348230775E1
5.586532750E0,2.870580597E0,6.519692230E0,1.069540878E1,1.285061823E1
5.596538750E0,3.323089600E0,6.316115570E0,1.024394760E1,1.248497909E1
5.606544750E0,3.464395752E0,5.759123840E0,1.075588303E1,1.268300300E1
5.616550750E0,3.289110260E0,5.064119110E0,1.140044266E1,1.290091630E1
5.626556750E0,2.828518066E0,4.402045898E0,1.170461014E1,1.282093682E1
5.636562750E0,2.627935181E0,3.921545105E0,1.172032745E1,1.263529323E1
5.646568750E0,2.682721252E0,3.678899689E0,1.146181503E1,1.233306532E1
5.656574750E0,2.915038147E0,3.488645325E0,1.122934845E1,1.211471668E1
5.666580750E0,3.064277802E0,3.354224854E0,1.108744354E1,1.198215453E1
5.676587750E0,3.128194885E0,3.357967072E0,1.045934967E1,1.142188871E1
5.686593750E0,3.226989441E0,3.680396576E0,9.145531769E0,1.037301938E1
5.696599750E0,3.387006683E0,4.103716278E0,7.496261444E0,9.192727408E0
5.706605750E0,3.195554810E0,4.350253601E0,5.901328125E0,7.997621557E0
5.716611750E0,2.800077209E0,4.411775665E0,4.846022644E0,7.126579289E0
5.726617750E0,2.276466064E0,4.241130524E0,4.519701233E0,6.602816452E0
5.736623750E0,1.855092316E0,4.056264954E0,4.877606964E0,6.609516062E0
5.746629750E0,1.553319855E0,3.879183197E0,5.675747223E0,7.048047346E0
5.756635750E0,1.315015411E0,3.704795837E0,6.728957062E0,7.793179125E0
5.766641750E0,1.285227356E0,3.608845367E0,7.658074951E0,8.562808313E0
5.776647750E0,1.329086151E0,3.595074005E0,8.094866638E0,8.956444216E0
5.786654750E0,1.509011993E0,3.675007782E0,8.019872589E0,8.949924901E0
5.796660750E0,1.752705231E0,3.800746307E0,7.594906311E0,8.671807770E0
5.806666750E0,1.858385468E0,4.052672424E0,7.065906372E0,8.354925684E0
5.816672750E0,1.901346130E0,4.527035980E0,6.687343597E0,8.296368860E0
5.826678750E0,2.058070221E0,4.884642334E0,6.279292145E0,8.217353199E0
5.836684750E0,2.153721313E0,5.047353973E0,5.905968475E0,8.061932849E0
5.846689917E0,1.962119751E0,4.861141205E0,5.774242401E0,7.798877037E0
5.856695917E0,1.354832611E0,4.641697540E0,5.833070068E0,7.576650571E0
5.866701917E0,6.045927429E-1,4.840035095E0,6.017336884E0,7.745954769E0
5.876707917E0,3.344046021E-1,5.245691528E0,6.232439575E0,8.153061333E0
5.886713917E0,5.176235962E-1,5.416037292E0,6.234984283E0,8.275048227E0
5.896719917E0,7.583230591E-1,5.336702271E0,6.022276611E0,8.082280654E0
5.906726917E0,8.891510010E-1,5.491779785E0,5.593568115E0,7.889121559E0
5.916732917E0,1.184786224E0,5.594466248E0,5.140310669E0,7.689249948E0
5.926738917E0,1.702260132E0,5.318440247E0,5.162015533E0,7.604597332E0
5.936744917E0,1.934876404E0,5.184319153E0,5.174589386E0,7.576099728E0
5.946750917E0,1.628463593E0,5.036726074E0,5.367837524E0,7.538844932E0
5.956756917E0,9.114546204E-1,4.842130737E0,5.790259094E0,7.602899446E0
5.966762917E0,-3.239263916E-1,4.563859406E0,6.442452850E0,7.901831415E0
5.976768917E0,-1.206191711E0,4.324058075E0,6.811884613E0,8.158072607E0
5.986774917E0,-1.147214355E0,4.300107880E0,6.712640991E0,8.053978994E0
5.996780917E0,-8.222401428E-1,4.567601624E0,6.441554718E0,7.939312982E0
6.006787917E0,-4.691244507E-1,4.676874390E0,5.706583099E0,7.393126705E0
6.016793917E0,-1.725910950E-1,4.985083466E0,4.947212219E0,7.025365015E0
6.026799917E0,2.709365845E-1,5.407355347E0,4.515210571E0,7.049824465E0
6.036805917E0,5.120851135E-1,5.826184387E0,4.340224457E0,7.283145201E0
6.046811917E0,6.191125488E-1,6.193221130E0,4.161795502E0,7.487311274E0
6.056817917E0,7.478448486E-1,6.367758179E0,4.448898468E0,7.803865306E0
6.066823917E0,6.345304871E-1,6.620432739E0,5.006339264E0,8.324433399E0
6.076829917E0,4.272116089E-1,6.905889130E0,5.728587341E0,8.982790622E0
6.086835917E0,-2.451901245E-1,6.935976563E0,7.197183380E0,9.998366751E0
6.096841917E0,-4.586462402E-1,7.018155670E0,8.095465393E0,1.072387175E1
6.106847916E0,2.454895020E-1,6.562203827E0,7.996221771E0,1.034709364E1
6.116853917E0,4.562512207E-1,6.486461334E0,8.227790222E0,1.048708147E1
6.126860917E0,3.197351074E-1,6.888974304E0,8.277636566E0,1.077401804E1
6.136866917E0,1.185534668E-1,7.287445679E0,8.087831268E0,1.088732906E1
6.146872917E0,-8.981323242E-3,7.366780701E0,7.773185577E0,1.070943288E1
6.156878917E0,2.679428101E-2,7.441175995E0,7.608378296E0,1.064233238E1
6.166884917E0,-9.460327148E-2,7.542365570E0,7.991880798E0,1.098937609E1
6.176890917E0,-5.469625854E-1,7.387587433E0,8.739126892E0,1.145634999E1
6.186896917E0,-1.135239258E0,6.980434113E0,9.248966675E0,1.164296410E1
6.196902917E0,-1.552272034E0,6.787036285E0,9.590855713E0,1.185149456E1
6.206908917E0,-1.692829742E0,6.916966095E0,9.729916534E0,1.205741964E1
6.216914917E0,-1.582209778E0,7.182813263E0,9.709109802E0,1.218043543E1
6.226920917E0,-1.147513733E0,7.384593658E0,9.515262909E0,1.209914210E1
6.236927917E0,-3.818559265E-1,7.574548645E0,9.727671204E0,1.233479583E1
6.246933917E0,4.266128540E-1,7.613168335E0,1.039348663E1,1.289057388E1
6.256939917E0,1.190624084E0,7.444918213E0,1.087413712E1,1.323220507E1
6.266945917E0,1.530417480E0,7.138505402E0,1.106289459E1,1.325473779E1
6.276951917E0,1.132993927E0,6.666087799E0,1.092308533E1,1.284656354E1
6.286957917E0,1.318757629E-1,5.900280304E0,1.052536240E1,1.206706064E1
6.296963917E0,-9.318122864E-1,4.942721558E0,1.064496368E1,1.177344565E1
6.306969917E0,-1.796713715E0,4.156107330E0,1.120375168E1,1.208409947E1
6.316975917E0,-2.130669250E0,3.618425446E0,1.176852722E1,1.249523858E1
6.326981917E0,-1.804946594E0,3.356320496E0,1.192555069E1,1.251964371E1
6.336987917E0,-9.057664490E-1,3.580404510E0,1.166000290E1,1.223091889E1
6.346993917E0,-6.107299805E-2,4.040098572E0,1.117022141E1,1.187855095E1
6.357000916E0,7.545808411E-1,4.388124847E0,1.060200302E1,1.149902170E1
6.367006917E0,1.146765289E0,4.651277618E0,9.879754944E0,1.097993679E1
6.377012917E0,1.000519409E0,4.712350616E0,9.002429352E0,1.021033896E1
6.387018917E0,6.968009949E-1,4.632416840E0,8.354726257E0,9.578427232E0
6.397024917E0,4.346960449E-1,4.485721893E0,8.115972748E0,9.283300878E0
6.407030917E0,-4.176315308E-2,4.228406982E0,8.301287384E0,9.316251500E0
6.417036917E0,-6.101312256E-1,3.853885803E0,8.659941559E0,9.498383215E0
6.427042917E0,-1.013542328E0,3.445235596E0,9.019194489E0,9.707872351E0
6.437048917E0,-1.293160858E0,3.176244965E0,9.172775116E0,9.792885193E0
6.447054917E0,-1.542542267E0,3.005749512E0,9.091344452E0,9.698789137E0
6.457060917E0,-1.407073975E0,2.983595581E0,8.818761292E0,9.415532405E0
6.467066917E0,-1.024469604E0,3.124153290E0,8.268954620E0,8.898622492E0
6.477073917E0,-5.406756592E-1,3.494483185E0,7.519163818E0,8.309125551E0
6.487079917E0,1.291813660E-1,4.030668182E0,6.746021576E0,7.859502588E0
6.497085917E0,7.087760925E-1,4.521048431E0,6.170767822E0,7.682487747E0
6.507091917E0,9.683363342E-1,4.781207428E0,5.699248352E0,7.501936517E0
6.517097917E0,9.777667236E-1,4.803361359E0,5.378465424E0,7.277100963E0
6.527103917E0,7.798782349E-1,4.679419098E0,5.364993439E0,7.161586958E0
6.537109917E0,4.291575623E-1,4.579876099E0,5.385201416E0,7.082360876E0
6.547115917E0,1.686991882E-1,4.553680573E0,5.228177948E0,6.935294574E0
6.557121917E0,-5.718109131E-2,4.608316956E0,4.954097900E0,6.766309249E0
6.567127916E0,-2.968327332E-1,4.748874664E0,4.678221588E0,6.672756363E0
6.577133917E0,-4.778063965E-1,4.953050079E0,4.418811035E0,6.654839968E0
6.587139917E0,-5.745053101E-1,5.095404053E0,4.250560913E0,6.660365372E0
6.597146917E0,-7.258406067E-1,5.236410828E0,4.262236633E0,6.790692458E0
6.607152917E0,-1.095571747E0,5.224884796E0,4.606670380E0,7.051319775E0
6.617158917E0,-1.439706116E0,4.982838135E0,5.145998840E0,7.306348858E0
6.627164917E0,-1.703757019E0,4.697531433E0,5.710325317E0,7.587977647E0
6.637170917E0,-1.876647491E0,4.680317230E0,6.318211212E0,8.083747157E0
6.647176917E0,-1.682351532E0,4.855303345E0,6.817123718E0,8.536829214E0
6.657182917E0,-1.152902527E0,5.179828491E0,7.241491241E0,8.977694739E0
6.667188917E0,-6.475534058E-1,5.708379364E0,7.456144867E0,9.412705066E0
6.677194917E0,-3.010240173E-1,6.222560120E0,7.609725494E0,9.834571267E0
6.687200917E0,-3.197351074E-1,6.501579895E0,7.488327942E0,9.922087837E0
6.697206917E0,-8.601113892E-1,6.478677521E0,6.658603363E0,9.330061777E0
6.707212917E0,-1.461710358E0,6.362519073E0,5.662873993E0,8.642128672E0
6.717218917E0,-1.858086090E0,6.165678406E0,4.917873230E0,8.102687901E0
6.727225917E0,-1.852846985E0,6.130651245E0,4.395609283E0,7.767838027E0
6.737231917E0,-1.236428833E0,6.275699615E0,4.217330017E0,7.661529508E0
6.747237917E0,-1.610650635E-1,6.679260406E0,4.473447418E0,8.040534394E0
6.757243917E0,8.990304565E-1,7.101532288E0,5.013374634E0,8.739218604E0
6.767249917E0,2.254461823E0,7.560477905E0,5.945785675E0,9.879058232E0
6.777255917E0,3.601360931E0,7.944728851E0,7.322472839E0,1.138890362E1
6.787261917E0,4.612508240E0,8.260721741E0,8.808133392E0,1.292663799E1
6.797267917E0,5.161117401E0,8.424331512E0,9.785301361E0,1.390534491E1
6.807273917E0,5.275479584E0,8.323740692E0,1.010204269E1,1.411264010E1
6.817279917E0,5.041067047E0,7.923173676E0,1.025173141E1,1.390277077E1
6.827285917E0,4.735252991E0,7.423812103E0,1.080468155E1,1.393831950E1
6.837291917E0,4.361031189E0,6.756350098E0,1.188752975E1,1.435201113E1
6.847298000E0,4.036056976E0,5.868995361E0,1.330283661E1,1.508974235E1
6.857305000E0,3.849844208E0,5.040767670E0,1.479283813E1,1.609530053E1
6.867311000E0,3.604055328E0,4.468208313E0,1.601399872E1,1.701182692E1
6.877317000E0,3.472628632E0,4.084256744E0,1.680719925E1,1.764149227E1
6.887323000E0,3.520678711E0,3.819008331E0,1.693563217E1,1.771427786E1
6.897329000E0,3.639681244E0,3.881129150E0,1.643567184E1,1.727546677E1
6.907335000E0,3.895948334E0,4.020639038E0,1.526809982E1,1.626219001E1
6.917341000E0,4.188589783E0,4.211941223E0,1.346509918E1,1.471712028E1
6.927347000E0,4.376149750E0,4.549339600E0,1.158081757E1,1.318948494E1
6.937353000E0,4.369413757E0,4.727169800E0,9.976154480E0,1.187272374E1
6.947359000E0,4.205205231E0,4.787045288E0,8.846004639E0,1.090189670E1
6.957365000E0,3.972139893E0,4.653373260E0,7.989186401E0,1.006274701E1
6.967371000E0,3.602558441E0,4.363276520E0,7.332052917E0,9.261512257E0
6.977377000E0,3.157982941E0,4.160747681E0,7.084168396E0,8.801711162E0
6.987384000E0,2.867287445E0,4.105662231E0,7.207511902E0,8.776447315E0
6.997390000E0,2.643652496E0,4.151916046E0,7.378456421E0,8.869550413E0
7.007396000E0,2.623145142E0,4.256997528E0,7.308701477E0,8.855508775E0
7.017402000E0,2.759960632E0,4.385879517E0,6.997947693E0,8.707731837E0
7.027408000E0,2.903212738E0,4.477638702E0,6.439758453E0,8.363514900E0
7.037414000E0,2.737956390E0,4.392166443E0,5.843697968E0,7.806173018E0
7.047420000E0,2.363285522E0,4.307143250E0,5.380860443E0,7.286306372E0
7.057426000E0,1.864522705E0,4.234095154E0,5.161865845E0,6.931728910E0
7.067432000E0,1.432071991E0,4.132905579E0,5.103487244E0,6.721407647E0
7.077438000E0,1.418899384E0,4.085005188E0,5.063670044E0,6.658926127E0
7.087444000E0,1.783690796E0,4.335135040E0,5.048551483E0,6.889326582E0
7.097450000E0,2.212399292E0,4.730013885E0,5.160518646E0,7.341573039E0
7.107456000E0,2.595901794E0,5.074747009E0,5.316194916E0,7.794465454E0
7.117463000E0,3.013533325E0,5.409600677E0,5.359155579E0,8.189365733E0
7.127469000E0,3.476221161E0,5.630690918E0,5.117258606E0,8.365113831E0
7.137475000E0,3.784579926E0,5.750591583E0,4.798122253E0,8.391324444E0
7.147481000E0,3.781137085E0,5.821544037E0,4.477938080E0,8.260708328E0
7.157487000E0,3.496728516E0,5.763315125E0,4.354145508E0,8.025054183E0
7.167493000E0,2.854563904E0,5.438490601E0,4.364024963E0,7.534615383E0
7.177499000E0,1.920057220E0,4.987328796E0,4.347409515E0,6.889124600E0
7.187505000E0,1.149908752E0,4.579427032E0,4.456233215E0,6.492415310E0
7.197511000E0,6.245013428E-1,4.291425934E0,4.579277344E0,6.306831175E0
7.207517000E0,2.158511353E-1,4.236789551E0,4.695735168E0,6.328262493E0
7.217523000E0,-1.975891113E-2,4.414020996E0,4.806953888E0,6.526161004E0
7.227529000E0,-1.204994202E-1,4.562512207E0,4.919220428E0,6.710422295E0
7.237536000E0,-1.058299255E-1,4.717889099E0,5.178181915E0,7.005943582E0
7.247542000E0,2.029779053E-1,5.023104401E0,5.779182129E0,7.659746989E0
7.257548000E0,4.263134766E-1,5.179229736E0,6.415209503E0,8.255972191E0
7.267554000E0,5.023553467E-1,5.195396118E0,6.834487610E0,8.599693169E0
7.277560000E0,4.019142151E-1,5.355413361E0,7.220684509E0,8.998903938E0
7.287566000E0,2.112107849E-1,5.371130676E0,7.777376862E0,9.454165515E0
7.297572000E0,1.734892273E-1,5.143454132E0,8.652906189E0,1.006767125E1
7.307578000E0,3.447331238E-1,4.956193542E0,9.509724426E0,1.072928488E1
7.317584000E0,4.269122314E-1,4.938081207E0,1.003228775E1,1.118989265E1
7.327590000E0,5.601351929E-1,5.115761719E0,1.036414764E1,1.157153083E1
7.337596000E0,7.604187012E-1,5.406307526E0,1.042537033E1,1.176837900E1
7.347602000E0,8.134085083E-1,5.724545746E0,9.968370667E0,1.152390867E1
7.357608000E0,1.144070892E0,6.032006378E0,9.431287537E0,1.125358537E1
7.367615000E0,1.277742920E0,6.343658295E0,9.050629120E0,1.112602872E1
7.377621000E0,1.153201904E0,6.430777130E0,8.880283356E0,1.102470869E1
7.387627000E0,9.693841553E-1,6.200256500E0,9.226064301E0,1.115809790E1
7.397633000E0,4.312532043E-1,5.826932831E0,9.980495453E0,1.156500822E1
7.407639000E0,3.008743286E-2,5.570516052E0,1.080707657E1,1.215830820E1
7.417645000E0,-3.159928894E-1,5.528004456E0,1.111753098E1,1.242007165E1
7.427651000E0,-6.502478027E-1,5.535937958E0,1.066696793E1,1.203551561E1
7.437657000E0,-4.180805969E-1,5.814059601E0,1.012015503E1,1.167885346E1
7.447663000E0,2.200424194E-1,6.301446075E0,9.757758636E0,1.161768027E1
7.457669000E0,1.214274902E0,6.756948853E0,9.434880066E0,1.166823822E1
7.467675000E0,2.039359131E0,7.100035400E0,9.235195312E0,1.182617101E1
7.477681000E0,2.612068176E0,7.126530304E0,9.428144073E0,1.210372814E1
7.487687000E0,2.938239899E0,6.684050446E0,1.009949799E1,1.246232898E1
7.497694000E0,2.981649628E0,5.826184387E0,1.084988754E1,1.267101885E1
7.507700000E0,2.738405457E0,4.896018677E0,1.149669250E1,1.279233372E1
7.517706000E0,2.326611786E0,3.948638763E0,1.202404587E1,1.286788831E1
7.527712000E0,2.257754974E0,3.325185242E0,1.240665024E1,1.304144488E1
7.537718000E0,2.513423309E0,3.258124695E0,1.206386307E1,1.274635106E1
7.547724000E0,3.039579163E0,3.562142487E0,1.136242172E1,1.228952920E1
7.557730000E0,3.519032135E0,4.040996704E0,1.077758789E1,1.203618055E1
7.567736000E0,3.921245728E0,4.436174927E0,1.025457550E1,1.184112050E1
7.577742000E0,4.108206940E0,4.610113220E0,9.649084625E0,1.145579950E1
7.587748000E0,4.178860016E0,4.614603882E0,8.893156586E0,1.085567474E1
7.597754000E0,4.149221649E0,4.607418823E0,8.534951477E0,1.054939549E1
7.607760000E0,3.947291565E0,4.507277069E0,8.519234161E0,1.041508560E1
7.617766000E0,3.662284241E0,4.224964142E0,8.520880737E0,1.019156791E1
7.627772000E0,3.548071747E0,3.798201599E0,8.748108215E0,1.017568405E1
7.637779000E0,3.339705048E0,3.325484619E0,9.238787842E0,1.037148391E1
7.647785000E0,2.990481262E0,2.926115112E0,9.614805908E0,1.048568646E1
7.657791000E0,2.680475922E0,2.608775024E0,9.794731750E0,1.048462819E1
7.667797000E0,2.359992371E0,2.428250427E0,9.825567627E0,1.039267739E1
7.677803000E0,2.099384308E0,2.489622803E0,9.585915985E0,1.012400224E1
7.687809000E0,1.960173798E0,2.685715027E0,9.083261261E0,9.672692575E0
7.697815000E0,1.907633057E0,2.930905151E0,8.508007507E0,9.198666242E0
7.707821000E0,1.868115234E0,3.128643951E0,7.897277527E0,8.697428346E0
7.717827000E0,1.702858887E0,3.165167999E0,7.197782135E0,8.045252297E0
7.727833000E0,1.583107910E0,3.220103760E0,6.562503204E0,7.479421581E0
7.737839000E0,1.325343933E0,3.316952362E0,6.083648987E0,7.054749784E0
7.747845000E0,1.071621552E0,3.321143646E0,6.047274628E0,6.981969514E0
7.757851000E0,7.717950439E-1,3.353925476E0,6.478228455E0,7.335661361E0
7.767858000E0,7.481442261E-1,3.348686371E0,6.691085815E0,7.519577753E0
7.777864000E0,7.653584290E-1,3.497027893E0,6.704707489E0,7.600531568E0
7.787870000E0,8.942404175E-1,3.889212341E0,6.724316711E0,7.819339729E0
7.797876000E0,1.054706726E0,4.361629944E0,6.634204102E0,8.009299976E0
7.807882000E0,1.031504974E0,4.863236847E0,6.443051605E0,8.138058069E0
7.817888000E0,9.678872681E-1,5.238805847E0,6.207890625E0,8.180452217E0
7.827894000E0,9.460327148E-1,5.561085663E0,5.954018555E0,8.201889331E0
7.837900000E0,7.529342651E-1,5.887107697E0,5.782624969E0,8.286356170E0
7.847906250E0,5.171745300E-1,6.098318481E0,5.671106873E0,8.343764795E0
7.857912250E0,3.986210632E-1,6.207740936E0,5.960155792E0,8.615010351E0
7.867918250E0,2.540217590E-1,6.161936188E0,6.791077881E0,9.173479352E0
7.877924250E0,1.595681763E-1,5.923931122E0,8.041427765E0,9.989143228E0
7.887930250E0,1.017883301E-1,5.598657532E0,9.016200714E0,1.061353863E1
7.897937250E0,7.214996338E-2,5.372777252E0,9.823771362E0,1.119725077E1
7.907943250E0,-1.724414062E-1,5.184319153E0,1.010503647E1,1.135863826E1
7.917949250E0,-4.318519592E-1,5.005441132E0,1.001597168E1,1.120538378E1
7.927955250E0,-4.300556946E-1,4.991220703E0,9.704768829E0,1.092152783E1
7.937961250E0,-2.975811768E-1,5.006638641E0,9.202712860E0,1.048069220E1
7.947967250E0,-6.795867920E-2,5.118306427E0,8.749455414E0,1.013679679E1
7.957973250E0,3.031196594E-1,5.254523163E0,8.361162872E0,9.879824886E0
7.967979250E0,7.232958984E-1,5.293891296E0,8.250393219E0,9.829416579E0
7.977985250E0,1.097218323E0,5.332810364E0,8.350385284E0,9.968534939E0
7.987991250E0,1.403930511E0,5.306016083E0,8.612190857E0,1.021247565E1
7.997997250E0,1.763931885E0,5.192851410E0,9.325607300E0,1.081869276E1
8.008003250E0,2.022444305E0,4.915328522E0,1.030831375E1,1.159793377E1
8.018009250E0,2.232756958E0,4.442910919E0,1.075423645E1,1.184813330E1
8.028015250E0,2.434237976E0,4.234993286E0,1.065933380E1,1.172527525E1
8.038022250E0,2.890638885E0,4.409829712E0,1.032657578E1,1.159485052E1
8.048028250E0,3.741319885E0,4.612059174E0,1.019320312E1,1.179703159E1
8.058034250E0,4.702920227E0,4.636159058E0,1.067415298E1,1.255185131E1
8.068040250E0,5.418582001E0,4.493954773E0,1.162752045E1,1.359249396E1
8.078046250E0,5.870342560E0,4.127516785E0,1.266636017E1,1.455795303E1
8.088052250E0,6.245612183E0,3.646417236E0,1.375609406E1,1.554136911E1
8.098058250E0,6.288722534E0,3.126697998E0,1.450378922E1,1.611471914E1
8.108064250E0,5.966592407E0,2.574795685E0,1.470871307E1,1.608029969E1
8.118070250E0,5.614524536E0,2.087409210E0,1.436353088E1,1.556249281E1
8.128076250E0,5.248535614E0,1.891316986E0,1.338845856E1,1.450431069E1
8.138082250E0,5.043611755E0,2.042801971E0,1.185414917E1,1.304346242E1
8.148088250E0,4.891378326E0,2.324216766E0,1.040216858E1,1.172743265E1
8.158094250E0,5.004243622E0,2.604883118E0,9.204509125E0,1.079587229E1
8.168100250E0,5.160818024E0,3.035537567E0,8.193511505E0,1.014801270E1
8.178107250E0,5.160818024E0,3.457809448E0,7.290289764E0,9.578038093E0
8.188113250E0,4.952451324E0,3.787124634E0,6.652915192E0,9.117585627E0
8.198119250E0,4.761598206E0,3.946543121E0,6.321055298E0,8.843288990E0
8.208125250E0,4.478087769E0,3.873045959E0,6.323450317E0,8.662550374E0
8.218131250E0,4.221521301E0,3.737427979E0,6.673721924E0,8.736599699E0
8.228137250E0,4.045786743E0,3.661835175E0,7.163503418E0,9.005176758E0
8.238143250E0,3.638483734E0,3.542233887E0,7.480394440E0,9.041144052E0
8.248149250E0,3.019969940E0,3.377725983E0,7.655829620E0,8.896121539E0
8.258155250E0,2.498753815E0,3.176694031E0,7.726632385E0,8.719862591E0
8.268161250E0,2.102078705E0,3.040477295E0,7.595355377E0,8.447050395E0
8.278167250E0,1.828298035E0,3.114872589E0,7.352410583E0,8.191644910E0
8.288173250E0,1.787283325E0,3.338357849E0,7.082671509E0,8.031391568E0
8.298179250E0,1.973346405E0,3.640878754E0,6.772815857E0,7.938584809E0
8.308185250E0,2.244133301E0,3.943249969E0,6.372099152E0,7.822339943E0
8.318192250E0,2.420616302E0,4.208049316E0,5.885161743E0,7.629036052E0
8.328198250E0,2.582729187E0,4.411027222E0,5.504952393E0,7.512133655E0
8.338204250E0,2.753374329E0,4.586911469E0,5.237308960E0,7.486670298E0
8.348210250E0,2.724185028E0,4.698130188E0,4.893024902E0,7.309945556E0
8.358216250E0,2.489622803E0,4.686155090E0,4.644541626E0,7.051952790E0
8.368222250E0,2.218985596E0,4.564907227E0,4.598138123E0,6.848733405E0
8.378228250E0,2.039957886E0,4.475692749E0,4.803211670E0,6.874888807E0
8.388234250E0,1.833836517E0,4.359983368E0,5.099445648E0,6.955340197E0
8.398240250E0,1.722617798E0,4.361779633E0,5.292693787E0,7.071431337E0
8.408246250E0,1.686093750E0,4.497696991E0,5.203778687E0,7.081772587E0
8.418252250E0,1.623224487E0,4.622687073E0,4.969515839E0,6.978551510E0
8.428258250E0,1.682201843E0,4.799469452E0,4.953349457E0,7.099322566E0
8.438264250E0,1.791474609E0,5.032534790E0,5.197491760E0,7.453167668E0
8.448270250E0,1.948647766E0,5.224286041E0,5.705984344E0,7.978010410E0
8.458276250E0,2.129771118E0,5.263354797E0,6.272705841E0,8.460831360E0
8.468283250E0,2.209555206E0,5.259462891E0,6.767127686E0,8.850881381E0
8.478289250E0,2.327060852E0,5.284460907E0,7.264094238E0,9.279429098E0
8.488295250E0,2.393822021E0,5.291047211E0,7.752977600E0,9.686806807E0
8.498301250E0,2.422562256E0,5.250481567E0,8.455766144E0,1.024384428E1
8.508307250E0,2.454595642E0,5.152734833E0,9.222172394E0,1.084546816E1
8.518313250E0,2.408042450E0,5.035678253E0,9.561067657E0,1.107116700E1
8.528319250E0,2.206711121E0,5.056934052E0,9.458231506E0,1.094989951E1
8.538325250E0,1.846709747E0,5.092110901E0,9.126970367E0,1.061327086E1
8.548331250E0,1.452130280E0,5.053640900E0,8.520731049E0,1.001253346E1
8.558337250E0,9.795629883E-1,5.034480743E0,7.825876007E0,9.356809033E0
8.568343250E0,6.539900208E-1,5.199737091E0,7.585775299E0,9.220030133E0
8.578349250E0,4.734654236E-1,5.235063629E0,7.313790894E0,9.006752908E0
8.588355250E0,3.784130859E-1,5.223088531E0,7.265890503E0,8.956395205E0
8.598361250E0,4.046086121E-1,5.301076355E0,7.929011536E0,9.546430882E0
8.608367250E0,6.360273743E-1,5.307512970E0,8.961714020E0,1.043487149E1
8.618373250E0,6.086343384E-1,5.041815491E0,9.655221863E0,1.090933767E1
8.628380250E0,1.713935852E-1,4.716990967E0,9.881551208E0,1.095100150E1
8.638386250E0,-1.730401611E-1,4.592749329E0,9.758656769E0,1.078678225E1
8.648392250E0,-2.478845215E-1,4.545298004E0,9.643995209E0,1.066432484E1
8.658398250E0,1.444496155E-1,4.622836761E0,1.000893631E1,1.102589187E1
8.668404250E0,8.071215820E-1,4.722679138E0,1.098700241E1,1.198621564E1
8.678410250E0,1.413660278E0,4.517455902E0,1.228300735E1,1.316351446E1
8.688416250E0,1.849404144E0,4.112398224E0,1.337753128E1,1.411702724E1
8.698422250E0,2.260000305E0,3.730093231E0,1.409933029E1,1.475846576E1
8.708428250E0,2.573747864E0,3.451223145E0,1.438852890E1,1.501881764E1
8.718434250E0,2.565215607E0,3.217559052E0,1.428778839E1,1.486855455E1
8.728440250E0,2.375709686E0,2.896177368E0,1.398796188E1,1.448084657E1
8.738446250E0,2.135159912E0,2.559228058E0,1.372181534E1,1.412079220E1
8.748452250E0,1.844464417E0,2.298320618E0,1.355805588E1,1.387462453E1
8.758458250E0,1.621577911E0,2.126028900E0,1.326257034E1,1.352942297E1
8.768464250E0,1.335373077E0,2.207758942E0,1.263911682E1,1.289979437E1
8.778470250E0,1.178948364E0,2.561323700E0,1.176927567E1,1.210231994E1
8.788477250E0,1.379231873E0,3.074606323E0,1.096439941E1,1.147055095E1
8.798483250E0,1.636247406E0,3.533851318E0,1.025053391E1,1.096534797E1
8.808489250E0,1.873354340E0,3.837420044E0,9.434580688E0,1.035599159E1
8.818495250E0,2.035616913E0,4.063000946E0,8.910969543E0,1.000285415E1
8.828501250E0,2.100581818E0,4.093537445E0,8.796457672E0,9.927092241E0
8.838507250E0,2.131268005E0,3.874093781E0,8.940607910E0,9.974235596E0
8.848513042E0,2.176773376E0,3.466641083E0,9.336534576E0,1.019445048E1
8.858519042E0,2.250120850E0,3.109783173E0,9.861642609E0,1.058233387E1
8.868525042E0,2.119442596E0,2.781665497E0,1.015593063E1,1.074116506E1
8.878531042E0,1.815724182E0,2.389181671E0,1.008258316E1,1.051967331E1
8.888537042E0,1.453776855E0,2.103425903E0,9.750124512E0,1.007982121E1
8.898543042E0,1.166524200E0,2.006128235E0,9.221723328E0,9.509232899E0
8.908549042E0,1.210233307E0,2.068398743E0,8.575666809E0,8.904212443E0
8.918555042E0,1.393302612E0,2.317031708E0,8.029302979E0,8.472286257E0
8.928561042E0,1.559008026E0,2.577939148E0,7.547454987E0,8.126521584E0
8.938567042E0,1.640438690E0,2.781815186E0,7.123237152E0,7.821127946E0
8.948573042E0,1.573827209E0,2.927761688E0,6.865173798E0,7.627537732E0
8.958580042E0,1.530567169E0,3.029100952E0,6.599176941E0,7.420729394E0
8.968586042E0,1.384620667E0,3.054548035E0,6.325096893E0,7.159210068E0
8.978592042E0,1.281185760E0,3.114423523E0,5.975573730E0,6.859194723E0
8.988598042E0,1.284179535E0,3.265459442E0,5.565426636E0,6.579233700E0
8.998604042E0,1.205143890E0,3.494034119E0,5.228627014E0,6.403060727E0
9.008610042E0,1.000669098E0,3.745511169E0,4.896318054E0,6.245328098E0
9.018616042E0,8.342152405E-1,3.941603394E0,4.762945404E0,6.238413364E0
9.028622042E0,7.008425903E-1,4.125271454E0,5.165757751E0,6.647864172E0
9.038628042E0,6.740483093E-1,4.306993561E0,5.967640228E0,7.390349420E0
9.048634042E0,6.777905273E-1,4.349654846E0,6.592141571E0,7.926867463E0
9.058640042E0,6.033952332E-1,4.474495239E0,7.029082947E0,8.354232492E0
9.068646042E0,4.406835938E-1,4.660857697E0,7.573351135E0,8.903563551E0
9.078652041E0,3.432362366E-1,4.718787231E0,8.080346832E0,9.363587399E0
9.088658042E0,3.263214111E-1,4.720284119E0,8.427624664E0,9.665010362E0
9.098664042E0,2.612068176E-1,4.807852020E0,8.643326111E0,9.893975758E0
9.108670042E0,2.704875183E-1,4.943320312E0,8.653804321E0,9.969849971E0
9.118676042E0,3.737727356E-1,5.078489227E0,8.462801514E0,9.876728626E0
9.128683042E0,6.126759338E-1,5.346432037E0,8.271050262E0,9.867622803E0
9.138689042E0,7.798782349E-1,5.614524536E0,8.077502747E0,9.867985937E0
9.148695042E0,9.201365662E-1,5.600753174E0,7.913892975E0,9.738828956E0
9.158701042E0,8.328680420E-1,5.490731964E0,7.698341217E0,9.492431942E0
9.168707042E0,6.135740662E-1,5.422773285E0,7.530989227E0,9.300469987E0
9.178713042E0,3.258723450E-1,5.419779510E0,7.516768799E0,9.272648807E0
9.188719042E0,1.228944397E-1,5.396877136E0,7.730075226E0,9.428438305E0
9.198725042E0,-6.541397095E-2,5.306016083E0,8.264014893E0,9.820999328E0
9.208731042E0,-3.278182983E-2,5.342390442E0,8.997489624E0,1.046408285E1
9.218737042E0,1.487905884E-1,5.330115967E0,9.371861115E0,1.078258112E1
9.228743042E0,4.026626587E-1,5.334007874E0,9.343569946E0,1.076643286E1
9.238749042E0,9.231303406E-1,5.359305267E0,9.063801727E0,1.057009103E1
9.248755042E0,1.845512238E0,5.450765076E0,8.918004913E0,1.061355581E1
9.258761042E0,2.962788849E0,5.521268463E0,9.327702942E0,1.123692865E1
9.268767042E0,4.038601685E0,5.227878571E0,1.068268524E1,1.256028590E1
9.278773042E0,4.996010742E0,4.529281311E0,1.253074219E1,1.423003908E1
9.288779041E0,5.673801270E0,3.892505493E0,1.442370575E1,1.598082937E1
9.298785042E0,6.033353577E0,3.237767029E0,1.622850266E1,1.761388058E1
9.308791042E0,6.239774323E0,2.703078918E0,1.730326767E1,1.859151665E1
9.318798042E0,6.366111603E0,2.285447388E0,1.677247147E1,1.808497846E1
9.328804042E0,6.334227905E0,2.207309875E0,1.519639893E1,1.661099637E1
9.338810042E0,6.430028687E0,2.527643738E0,1.321601715E1,1.491299303E1
9.348816042E0,6.562652893E0,2.771336975E0,1.121138580E1,1.328321848E1
9.358822042E0,6.754553833E0,2.865940247E0,9.462572479E0,1.197405065E1
9.368828042E0,6.873107300E0,2.949616241E0,8.150700531E0,1.106226736E1
9.378834042E0,6.740782471E0,3.014730835E0,7.159910889E0,1.028547881E1
9.388840042E0,6.384822693E0,3.010838928E0,6.414610748E0,9.538256807E0
9.398846042E0,5.827830963E0,2.910996552E0,5.911357269E0,8.796684570E0
9.408852042E0,5.155878296E0,2.758912811E0,5.652395782E0,8.132912085E0
9.418858042E0,4.460723877E0,2.637964325E0,5.709576874E0,7.710783447E0
9.428864042E0,3.847449188E0,2.639760590E0,6.203849030E0,7.762663461E0
9.438870042E0,3.376977539E0,2.759810944E0,7.034471741E0,8.276734043E0
9.448876042E0,3.050656128E0,2.900218964E0,7.558681641E0,8.651672728E0
9.458882042E0,2.730022888E0,3.092269592E0,7.702382813E0,8.737382743E0
9.468888042E0,2.486329651E0,3.274740143E0,7.612719269E0,8.652124179E0
9.478894042E0,2.416574707E0,3.502716064E0,7.400161285E0,8.536465322E0
9.488900042E0,2.504142609E0,3.806135101E0,7.030130768E0,8.377358368E0
9.498907042E0,2.550246735E0,4.058360596E0,6.426585846E0,8.017172492E0
9.508913042E0,2.459235992E0,4.184997253E0,5.912255402E0,7.649627939E0
9.518919042E0,2.421364746E0,4.223616943E0,5.599705353E0,7.420151438E0
9.528925042E0,2.481240234E0,4.315525818E0,5.401517487E0,7.345522946E0
9.538931042E0,2.612517242E0,4.494403839E0,5.338947601E0,7.451796676E0
9.548937042E0,2.702779541E0,4.627926178E0,5.411396942E0,7.616162736E0
9.558943042E0,2.626288605E0,4.622537384E0,5.581143951E0,7.708074436E0
9.568949042E0,2.478246460E0,4.559368744E0,5.749693451E0,7.745225861E0
9.578955042E0,2.335293732E0,4.528383179E0,5.827980652E0,7.741137481E0
9.588961042E0,2.256557465E0,4.600682831E0,5.847889252E0,7.775354834E0
9.598967042E0,2.265688477E0,4.659211121E0,5.824088745E0,7.794972883E0
9.608973042E0,2.284848633E0,4.677922211E0,5.713019714E0,7.729300340E0
9.618979042E0,2.266586609E0,4.754712524E0,5.701194305E0,7.761979294E0
9.628985042E0,2.301314392E0,4.833149414E0,6.052214355E0,8.079893551E0
9.638991042E0,2.459385681E0,4.868176575E0,6.487060089E0,8.475238621E0
9.648997042E0,2.427651672E0,4.913083191E0,6.764133911E0,8.705480265E0
9.659003042E0,2.382894745E0,4.981191559E0,7.051685944E0,8.956379367E0
9.669009042E0,2.399659882E0,5.013823700E0,7.523055725E0,9.353778011E0
9.679015042E0,2.386187897E0,4.993765411E0,7.987539825E0,9.717632331E0
9.689021042E0,2.340682526E0,4.968468018E0,8.419840851E0,1.005277022E1
9.699027042E0,2.370171204E0,4.973407745E0,8.700806580E0,1.029837518E1
9.709034042E0,2.261946259E0,5.026098175E0,8.885971527E0,1.045650772E1
9.719040042E0,2.114502869E0,5.140011292E0,8.828041992E0,1.043193002E1
9.729046042E0,2.153721313E0,5.360502777E0,8.590186615E0,1.035204384E1
9.739052042E0,2.109114075E0,5.649102631E0,8.421188049E0,1.035746740E1
9.749058042E0,1.869612122E0,5.812113647E0,8.160579987E0,1.019172116E1
9.759064042E0,1.426533508E0,5.818550262E0,8.042026520E0,1.002819603E1
9.769070042E0,9.792636108E-1,5.764512634E0,8.123756561E0,1.000919496E1
9.779076042E0,5.837860107E-1,5.697003021E0,8.228538666E0,1.002524304E1
9.789082042E0,3.224295044E-1,5.585185547E0,8.538843384E0,1.020833506E1
9.799088042E0,3.423381042E-1,5.468727722E0,9.142388306E0,1.065867920E1
9.809094042E0,4.564009094E-1,5.394482117E0,9.798174591E0,1.119432733E1
9.819100042E0,6.086343384E-1,5.348677368E0,1.042776535E1,1.173529188E1
9.829106042E0,4.499642944E-1,5.163961487E0,1.071142548E1,1.189973117E1
9.839112042E0,1.122665405E-1,4.876110077E0,1.030906219E1,1.140464013E1
9.849118375E0,-2.106120300E-1,4.836292877E0,9.643097076E0,1.078996791E1
9.859124375E0,-4.351451111E-1,4.907694397E0,9.217382355E0,1.045155266E1
9.869130375E0,-3.905378723E-1,4.930447083E0,9.027427368E0,1.029350636E1
9.879136375E0,-2.234852600E-1,4.696782990E0,9.276210022E0,1.039989368E1
9.889142375E0,-2.844085693E-3,4.303850098E0,1.034977753E1,1.120897090E1
9.899148375E0,2.971321106E-1,3.770359497E0,1.195249466E1,1.253658753E1
9.909154375E0,3.016227722E-1,3.106340332E0,1.332289490E1,1.368356149E1
9.919161375E0,1.416055298E-1,2.511776733E0,1.440768906E1,1.462568215E1
9.929167375E0,1.893562317E-1,2.020348663E0,1.512110550E1,1.525665416E1
9.939173375E0,2.260299683E-1,1.769769745E0,1.512230301E1,1.522718696E1
9.949179375E0,2.442919922E-1,1.749262390E0,1.435335205E1,1.446161514E1
9.959185375E0,4.433779907E-1,1.855691071E0,1.319925201E1,1.333643232E1
9.969191375E0,9.665400696E-1,2.079176331E0,1.195713501E1,1.217498466E1
9.979197375E0,1.837728424E0,2.556234283E0,1.095676529E1,1.140010022E1
9.989203375E0,2.641107788E0,3.083737335E0,1.016955231E1,1.095009956E1
9.999209375E0,3.382815399E0,3.483705597E0,9.719887390E0,1.086535115E1
1.000921537E1,3.938310242E0,3.786974945E0,9.470206604E0,1.093326483E1
1.001922137E1,4.215982819E0,3.890559540E0,9.356443176E0,1.097515346E1
1.002922738E1,4.239783325E0,3.726650391E0,9.543703766E0,1.108810026E1
1.003923337E1,4.068838806E0,3.281176758E0,9.985285492E0,1.127064756E1
1.004923937E1,3.898493042E0,2.847378845E0,1.034678375E1,1.141760694E1
1.005924537E1,3.580554199E0,2.523153076E0,1.055619827E1,1.142891035E1
1.006925138E1,3.201841736E0,2.238894196E0,1.045845154E1,1.116439189E1
1.007925737E1,2.811902618E0,2.137704620E0,1.006581802E1,1.066758032E1
1.008926337E1,2.507735138E0,2.130818939E0,9.433233490E0,9.990746666E0
1.009926937E1,2.397115173E0,2.236798553E0,8.770262146E0,9.363061841E0
1.010927538E1,2.391127625E0,2.396366730E0,8.180638275E0,8.853412190E0
1.011928137E1,2.335892487E0,2.599045258E0,7.601342926E0,8.366112851E0
1.012928737E1,2.345622253E0,2.845283203E0,6.965914307E0,7.881722045E0
1.013929437E1,2.352657623E0,3.049907684E0,6.446644135E0,7.509737370E0
1.014930038E1,2.392774200E0,3.294798431E0,6.045927429E0,7.289328059E0
1.015930637E1,2.353406067E0,3.556604004E0,5.899382172E0,7.279468536E0
1.016931237E1,2.241588593E0,3.739673309E0,5.866151276E0,7.309008597E0
1.017931837E1,2.138303375E0,3.901636505E0,5.857768707E0,7.355852294E0
1.018932438E1,2.011067963E0,4.087250519E0,5.906716919E0,7.459176624E0
1.019933037E1,1.878593445E0,4.299958191E0,5.808072052E0,7.466756641E0
1.020933637E1,1.843117218E0,4.623136139E0,5.597909088E0,7.490464271E0
1.021934237E1,1.669927368E0,5.049748993E0,5.465883636E0,7.626565822E0
1.022934837E1,1.460063782E0,5.377118225E0,5.418432312E0,7.772039332E0
1.023935438E1,1.294508057E0,5.662275238E0,5.405858459E0,7.934760089E0
1.024936037E1,9.904902649E-1,5.913602600E0,5.516777802E0,8.147797493E0
1.025936637E1,6.801855469E-1,6.065087585E0,5.688919830E0,8.343365546E0
1.026937237E1,3.535647583E-1,6.120322723E0,5.973627777E0,8.559648772E0
1.027937838E1,7.259902954E-2,6.118077393E0,6.476731567E0,8.909780772E0
1.028938437E1,-8.876541138E-2,6.082750854E0,6.907386017E0,9.204331526E0
1.029939037E1,-4.640350342E-2,6.103557587E0,7.346572723E0,9.551319243E0
1.030939637E1,1.282832336E-1,6.196813660E0,8.283474426E0,1.034567082E1
1.031940238E1,2.634521484E-1,6.127208405E0,9.369765472E0,1.119841930E1
1.032940837E1,4.998106384E-1,5.923781433E0,1.019679565E1,1.180320460E1
1.033941437E1,5.563929749E-1,5.867049408E0,1.047312103E1,1.201740846E1
1.034942037E1,2.535726929E-1,5.822591858E0,9.858499146E0,1.145237445E1
1.035942738E1,-2.778222656E-1,5.819598083E0,8.886869659E0,1.062644623E1
1.036943337E1,-8.026309204E-1,5.776188354E0,7.987839203E0,9.890103307E0
1.037943937E1,-1.252744904E0,5.809269562E0,7.292984161E0,9.407688378E0
1.038944537E1,-1.540746002E0,5.878874817E0,7.282505951E0,9.485249616E0
1.039945138E1,-1.195863190E0,5.839207306E0,7.879913635E0,9.880256557E0
1.040945737E1,-6.848258972E-1,5.776038666E0,9.089099121E0,1.079089116E1
1.041946337E1,-8.382568359E-3,5.449268188E0,1.029439270E1,1.164770858E1
1.042946937E1,5.611830139E-1,5.040318604E0,1.074869797E1,1.188504295E1
1.043947537E1,9.773176575E-1,4.870870972E0,1.071187454E1,1.180782749E1
1.044948138E1,1.421294403E0,4.497247925E0,1.038854691E1,1.140908513E1
1.045948737E1,2.167193298E0,4.059408417E0,1.008842102E1,1.108836156E1
1.046949337E1,3.499422913E0,3.770658875E0,1.049662216E1,1.168943565E1
1.047949937E1,4.986879730E0,3.591930542E0,1.176882660E1,1.327690529E1
1.048950538E1,6.472240906E0,3.391497345E0,1.294747559E1,1.486705353E1
1.049951137E1,7.737260284E0,3.322640533E0,1.368439316E1,1.606759948E1
1.050951737E1,8.798553314E0,3.009192352E0,1.389440643E1,1.671898051E1
1.051952337E1,9.234446869E0,2.579735413E0,1.332005081E1,1.641200163E1
1.052952938E1,9.059909821E0,2.282902679E0,1.218960159E1,1.535838525E1
1.053953537E1,8.489296417E0,2.145488434E0,1.080962128E1,1.391111737E1
1.054954137E1,7.691904602E0,2.083068237E0,9.310638428E0,1.225530732E1
1.055954737E1,6.941065979E0,2.051184540E0,7.842940521E0,1.067227581E1
1.056955338E1,6.457421722E0,2.067201233E0,6.632557526E0,9.484852955E0
1.057956037E1,6.150260468E0,2.157613220E0,5.597759399E0,8.591618527E0
1.058956637E1,5.621709595E0,2.425556030E0,5.037474518E0,7.928624745E0
1.059957237E1,4.758604431E0,2.656825104E0,4.950355682E0,7.362680025E0
1.060957838E1,4.112398224E0,2.771786041E0,5.238656158E0,7.213746278E0
1.061958437E1,3.876788177E0,2.862048340E0,5.883215790E0,7.604803436E0
1.062959037E1,3.790417786E0,3.024161224E0,6.697372742E0,8.268471427E0
1.063959637E1,3.688330078E0,3.174448700E0,7.382947083E0,8.842443720E0
1.064960237E1,3.579955444E0,3.369343414E0,7.634124756E0,9.080111057E0
1.065960838E1,3.627706146E0,3.564088440E0,7.539072418E0,9.093986542E0
1.066961437E1,3.865860901E0,3.800297241E0,7.009922791E0,8.861498584E0
1.067962037E1,4.056414642E0,4.253404999E0,6.312672729E0,8.625299463E0
1.068962637E1,4.058809662E0,4.652325439E0,5.565726013E0,8.312362716E0
1.069963238E1,4.109404449E0,4.913981323E0,4.929998016E0,8.083272717E0
1.070963837E1,4.008514252E0,5.026547241E0,4.490362244E0,7.842047995E0
1.071964437E1,3.817062378E0,5.041516113E0,4.273463287E0,7.632125417E0
1.072965037E1,3.583098907E0,4.959486694E0,4.512516174E0,7.602493556E0
1.073965638E1,3.375630341E0,4.823569336E0,5.148693237E0,7.821172763E0
1.074966237E1,3.071313171E0,4.695585480E0,5.939049683E0,8.170299794E0
1.075966837E1,2.891836395E0,4.554279327E0,6.515351257E0,8.458958561E0
1.076967437E1,2.805915070E0,4.551734619E0,6.628216553E0,8.516143616E0
1.077968038E1,2.737058258E0,4.668491821E0,6.431226196E0,8.405175440E0
1.078968637E1,2.650538177E0,4.797523499E0,6.138584747E0,8.229447554E0
1.079969237E1,2.530338135E0,4.913083191E0,5.910608826E0,8.091742347E0
1.080969837E1,2.338287506E0,4.960983582E0,5.726791077E0,7.929380972E0
1.081970538E1,2.224973145E0,5.057832184E0,5.520819397E0,7.810993452E0
1.082971137E1,2.180216217E0,5.250331879E0,5.613476715E0,7.989395998E0
1.083971737E1,2.133064270E0,5.430557098E0,5.754932556E0,8.195130402E0
1.084972337E1,2.119292908E0,5.640570374E0,5.906567230E0,8.437711361E0
1.085972937E1,2.194286957E0,5.833668823E0,6.330036621E0,8.883465023E0
1.086973538E1,2.330354004E0,5.828579407E0,7.086862793E0,9.467127966E0
1.087974137E1,2.493065643E0,5.691614227E0,7.976612549E0,1.011119165E1
1.088974737E1,2.564018097E0,5.528603210E0,8.862021332E0,1.075523428E1
1.089975337E1,2.698887634E0,5.507048035E0,9.578431549E0,1.137356248E1
1.090975938E1,2.734812927E0,5.542374573E0,1.009530670E1,1.183690564E1
1.091976537E1,2.618205414E0,5.482499084E0,1.009051666E1,1.177842614E1
1.092977137E1,2.372715912E0,5.344037018E0,9.729916534E0,1.135164253E1
1.093977737E1,2.019749908E0,5.347779236E0,9.311386871E0,1.092611815E1
1.094978338E1,1.721569977E0,5.487588501E0,8.756640472E0,1.047645852E1
1.095978937E1,1.495090942E0,5.683680725E0,8.251590729E0,1.013056134E1
1.096979537E1,1.256337433E0,5.802234192E0,7.958500214E0,9.928848423E0
1.097980137E1,9.491761780E-1,5.798791351E0,7.866291962E0,9.818628508E0
1.098980738E1,8.099656677E-1,5.752537537E0,8.167765045E0,1.002297951E1
1.099981337E1,8.939410400E-1,5.708828430E0,8.898844757E0,1.061033886E1
1.100981937E1,9.020242310E-1,5.531297607E0,9.683812408E0,1.118861581E1
1.101982537E1,7.167095947E-1,5.183870087E0,1.025218048E1,1.151057715E1
1.102983137E1,4.489164734E-1,4.972659302E0,1.063179108E1,1.174580129E1
1.103983738E1,3.263214111E-1,4.907095642E0,1.090676926E1,1.196426717E1
1.104984337E1,4.749623108E-1,4.958738251E0,1.123428818E1,1.228917837E1
1.105985037E1,8.936416626E-1,4.927453308E0,1.166883453E1,1.269803492E1
1.106985637E1,1.338366852E0,4.765789490E0,1.225097397E1,1.321326373E1
1.107986238E1,1.578467560E0,4.460574188E0,1.298774185E1,1.382279712E1
1.108986837E1,1.577569427E0,4.033961334E0,1.357212662E1,1.424655012E1
1.109987437E1,1.368753662E0,3.582350464E0,1.382614838E1,1.434813926E1
1.110988037E1,1.080602875E0,3.174299011E0,1.377809830E1,1.418026338E1
1.111988638E1,9.602531433E-1,2.855611725E0,1.359248428E1,1.392236451E1
1.112989237E1,9.298663330E-1,2.653831329E0,1.353230942E1,1.382139176E1
1.113989837E1,1.028361511E0,2.497705994E0,1.364068405E1,1.390555012E1
1.114990437E1,1.163081360E0,2.318678284E0,1.356748627E1,1.381324404E1
1.115991038E1,1.068178711E0,2.234253845E0,1.296498917E1,1.319938787E1
1.116991637E1,8.650511169E-1,2.368524628E0,1.192330536E1,1.218701904E1
1.117992237E1,7.111711121E-1,2.584974518E0,1.090003326E1,1.122490903E1
1.118992837E1,7.696994019E-1,2.902763672E0,1.011970596E1,1.055589517E1
1.119993438E1,9.216334534E-1,3.229983215E0,9.442963257E0,1.002256229E1
1.120994037E1,1.093925171E0,3.637585602E0,8.868907013E0,9.648119656E0
1.121994637E1,1.213077393E0,4.057911530E0,8.528065796E0,9.521875286E0
1.122995237E1,1.148262177E0,4.269421692E0,8.306077423E0,9.409430895E0
1.123995837E1,8.812174988E-1,4.159550171E0,8.299042053E0,9.324832487E0
1.124996438E1,6.655160522E-1,3.958368530E0,8.681197357E0,9.564244904E0
1.125997037E1,6.885681152E-1,3.941154327E0,9.258097687E0,1.008559350E1
1.126997637E1,1.023272095E0,4.050127716E0,9.688752136E0,1.055094964E1
1.127998237E1,1.516047363E0,4.139342194E0,9.906698914E0,1.084321155E1
1.128998838E1,1.904938660E0,4.156556396E0,9.956694946E0,1.095634641E1
1.129999437E1,2.177521820E0,4.125271454E0,9.853709106E0,1.090206627E1
1.131000037E1,2.419867859E0,4.040098572E0,9.674531708E0,1.075986620E1
1.132000737E1,2.449955292E0,3.917503510E0,9.262588348E0,1.035107036E1
1.133001338E1,2.293081512E0,3.700155487E0,8.535550232E0,9.581492118E0
1.134001937E1,2.045196991E0,3.481609955E0,7.514373779E0,8.530548160E0
1.135002537E1,1.748513947E0,3.339255981E0,6.496939545E0,7.511201966E0
1.136003137E1,1.594035187E0,3.194357300E0,5.723497925E0,6.745613036E0
1.137003738E1,1.549128571E0,3.090922394E0,5.045258331E0,6.116226958E0
1.138004337E1,1.495390320E0,3.072810059E0,4.422403564E0,5.588918245E0
1.139004937E1,1.439706116E0,3.054248657E0,3.960314484E0,5.204351964E0
1.140005537E1,1.246757355E0,3.009192352E0,3.890559540E0,5.074061100E0
1.141006138E1,1.102756805E0,2.950813751E0,4.065545654E0,5.143154269E0
1.142006737E1,1.035995636E0,2.883753204E0,4.452191620E0,5.404750662E0
1.143007337E1,1.046324158E0,2.884351959E0,4.855003967E0,5.743286863E0
1.144007937E1,8.446934509E-1,2.978206787E0,5.173391876E0,6.028864420E0
1.145008537E1,6.414161682E-1,3.195105743E0,5.229225769E0,6.161567784E0
1.146009138E1,4.782554626E-1,3.526815948E0,5.254972229E0,6.346801726E0
1.147009737E1,3.887416077E-1,3.879632263E0,5.566624146E0,6.796320395E0
1.148010337E1,4.525090027E-1,4.149221649E0,5.970035248E0,7.284375440E0
1.149010937E1,6.667135620E-1,4.420158234E0,6.347101135E0,7.763246654E0
1.150011538E1,9.882449341E-1,4.724475403E0,6.747518463E0,8.296161841E0
1.151012137E1,1.043779449E0,5.009931793E0,6.995103607E0,8.667200620E0
1.152012737E1,1.074016571E0,5.187163239E0,7.325466614E0,9.040057255E0
1.153013337E1,9.746232605E-1,5.268893280E0,7.491172028E0,9.210254353E0
1.154013938E1,6.083349609E-1,5.242697754E0,7.095544739E0,8.843229405E0
1.155014537E1,3.037184143E-1,5.313650208E0,6.619534607E0,8.493842582E0
1.156015137E1,2.305206299E-1,5.429958344E0,6.371500397E0,8.374580866E0
1.157015737E1,3.462300110E-1,5.471272430E0,6.385870514E0,8.416296065E0
1.158016338E1,6.481521606E-1,5.508395233E0,6.637347565E0,8.649676408E0
1.159016937E1,9.632469177E-1,5.586682434E0,6.848109283E0,8.890189312E0
1.160017637E1,1.252595215E0,5.720504150E0,7.369624786E0,9.412998035E0
1.161018237E1,1.712289276E0,5.806275787E0,8.110883331E0,1.012083008E1
1.162018838E1,2.203118591E0,5.869743805E0,8.729397125E0,1.074755777E1
1.163019437E1,2.657274170E0,6.054459686E0,9.011560364E0,1.117702144E1
1.164020037E1,3.317551117E0,6.306535492E0,9.123377838E0,1.157646572E1
1.165020637E1,4.114793243E0,6.580465851E0,9.675729218E0,1.240378128E1
1.166021237E1,4.903203735E0,6.646328888E0,1.064496368E1,1.347331980E1
1.167021838E1,5.406307526E0,6.226302338E0,1.192599976E1,1.449911970E1
1.168022437E1,5.989045715E0,5.441184998E0,1.339085358E1,1.564577011E1
1.169023037E1,6.366560669E0,4.727020111E0,1.451007614E1,1.653542027E1
1.170023637E1,6.015690308E0,4.043391724E0,1.522783356E1,1.686488842E1
1.171024238E1,5.442831573E0,3.261417847E0,1.537258255E1,1.663062104E1
1.172024837E1,4.825515289E0,2.825823669E0,1.508637772E1,1.608942727E1
1.173025437E1,4.287534027E0,2.648891602E0,1.439137299E1,1.524831765E1
1.174026037E1,4.127367096E0,2.585722961E0,1.346524887E1,1.431901008E1
1.175026638E1,4.361031189E0,2.584226074E0,1.250349884E1,1.349200877E1
1.176027237E1,4.722529449E0,2.754122772E0,1.135823044E1,1.260543039E1
1.177027837E1,5.043312378E0,2.997965698E0,1.007734406E1,1.166086023E1
1.178028437E1,5.291047211E0,3.118764496E0,8.829688568E0,1.075570885E1
1.179029038E1,5.342540131E0,3.236719208E0,7.855065308E0,1.003599209E1
1.180029637E1,5.227279816E0,3.415896606E0,7.236850891E0,9.558494375E0
1.181030237E1,4.829407196E0,3.364553375E0,6.973997498E0,9.125789521E0
1.182030837E1,4.354444885E0,3.126248932E0,7.128326569E0,8.918949619E0
1.183031437E1,3.779939575E0,2.900518341E0,7.676037598E0,9.034517311E0
1.184032038E1,3.186723175E0,2.669099579E0,8.425978088E0,9.395552347E0
1.185032617E1,2.586321716E0,2.429298248E0,8.998836823E0,9.673138796E0
1.186033217E1,2.009870453E0,2.265688477E0,9.168134766E0,9.655445023E0
1.187033817E1,1.563798065E0,2.282453613E0,8.979526978E0,9.396114283E0
1.188034417E1,1.343156891E0,2.402054901E0,8.284671936E0,8.729818284E0
1.189035017E1,1.350042572E0,2.614762573E0,7.337292023E0,7.905406535E0
1.190035617E1,1.567390594E0,2.958447876E0,6.476881256E0,7.291029963E0
1.191036217E1,1.922152863E0,3.412004700E0,5.895041199E0,7.077284679E0
1.192036817E1,2.098336487E0,3.757486267E0,5.426515503E0,6.925950445E0
1.193037517E1,2.090253296E0,3.886817322E0,5.031337280E0,6.692597594E0
1.194038117E1,1.822909241E0,3.824546814E0,4.854255524E0,6.443132245E0
1.195038717E1,1.458117828E0,3.624113617E0,4.946014709E0,6.302647746E0
1.196039317E1,1.224453735E0,3.436254272E0,5.088668060E0,6.261123941E0
1.197039917E1,9.868977356E-1,3.463198242E0,5.197342072E0,6.322979821E0
1.198040517E1,9.219328308E-1,3.605252838E0,5.430557098E0,6.583217949E0
1.199041117E1,1.048569489E0,3.758983154E0,5.828130341E0,7.014025634E0
1.200041717E1,1.263672180E0,3.960763550E0,6.306685181E0,7.553727109E0
1.201042317E1,1.553918610E0,4.224515076E0,6.595135345E0,7.984798112E0
1.202042917E1,1.727856903E0,4.394711151E0,6.525230713E0,8.054663955E0
1.203043517E1,1.815574493E0,4.567152557E0,6.373146973E0,8.048117516E0
1.204044117E1,1.992955627E0,4.796026611E0,6.289171600E0,8.156434442E0
1.205044717E1,2.237696686E0,5.034630432E0,6.231541443E0,8.317866241E0
1.206045317E1,2.441273346E0,5.260361023E0,6.323450317E0,8.580048809E0
1.207045917E1,2.769091644E0,5.442981262E0,6.693480835E0,9.060717369E0
1.208046517E1,2.902314606E0,5.512885895E0,7.200626221E0,9.521783390E0
1.209047117E1,2.981499939E0,5.450765076E0,7.897876282E0,1.004871293E1
1.210047717E1,3.116369476E0,5.374124451E0,8.640781403E0,1.064218378E1
1.211048317E1,3.105292511E0,5.298681335E0,9.265731812E0,1.111632365E1
1.212048917E1,3.062481537E0,5.193300476E0,9.782457275E0,1.149111106E1
1.213049517E1,3.025957489E0,5.053790588E0,1.013766861E1,1.172474063E1
1.214050117E1,2.938688965E0,4.916675720E0,1.030502060E1,1.178995515E1
1.215050717E1,2.728825378E0,4.888983307E0,1.022628433E1,1.165871078E1
1.216051317E1,2.361938324E0,5.003644867E0,9.807455292E0,1.126061250E1
1.217051917E1,1.954934692E0,5.027295685E0,9.123527527E0,1.059878418E1
1.218052517E1,1.684596863E0,5.010081482E0,8.588240662E0,1.008447622E1
1.219053117E1,1.599423981E0,5.033881989E0,8.460406494E0,9.973795817E0
1.220053717E1,1.547781372E0,5.061873779E0,8.710536346E0,1.019272470E1
1.221054317E1,1.702709198E0,5.067711639E0,9.526938629E0,1.092444413E1
1.222054917E1,1.838027802E0,4.877756653E0,1.045111679E1,1.167889971E1
1.223055517E1,1.617686005E0,4.616250458E0,1.114193024E1,1.216837235E1
1.224056117E1,1.176104279E0,4.404440918E0,1.157453064E1,1.243993893E1
1.225056717E1,1.025068359E0,4.347708893E0,1.175984528E1,1.257963826E1
1.226057317E1,1.017883301E0,4.418960724E0,1.163051422E1,1.248327527E1
1.227057917E1,1.124162292E0,4.447850647E0,1.153261780E1,1.241162316E1
1.228058517E1,1.223854980E0,4.399351501E0,1.175924652E1,1.261475301E1
1.229059217E1,1.270258484E0,4.209246826E0,1.211984665E1,1.289271105E1
1.230059717E1,1.353036346E0,3.923790436E0,1.245155685E1,1.312509455E1
1.231060417E1,1.379082184E0,3.623664551E0,1.280796570E1,1.338195792E1
1.232061017E1,1.480571136E0,3.288062439E0,1.318323532E1,1.366752132E1
1.233061617E1,1.677561493E0,2.999612274E0,1.353455475E1,1.396409892E1
1.234062217E1,1.822909241E0,2.674937439E0,1.403556290E1,1.440400341E1
1.235062817E1,1.877395935E0,2.333497467E0,1.433658691E1,1.464607628E1
1.236063417E1,1.796264648E0,2.063459015E0,1.402493500E1,1.428926980E1
1.237064017E1,1.554068298E0,1.951192474E0,1.289897644E1,1.313795546E1
1.238064617E1,1.303339691E0,2.101779327E0,1.150896698E1,1.177168177E1
1.239065217E1,1.131197662E0,2.279609528E0,1.051757858E1,1.082107606E1
1.240065817E1,1.002615051E0,2.268831940E0,9.808802490E0,1.011758082E1
1.241066417E1,9.515711975E-1,2.406096497E0,9.269623718E0,9.623965501E0
1.242067017E1,9.906399536E-1,2.727029114E0,8.957522736E0,9.415692692E0
1.243067617E1,1.271755371E0,2.939287720E0,8.838819580E0,9.401143845E0
1.244068217E1,1.556762695E0,3.026107178E0,8.609945526E0,9.258077376E0
1.245068817E1,1.787582703E0,3.035238190E0,8.446036377E0,9.151155843E0
1.246069417E1,1.887874146E0,2.927462311E0,8.306825867E0,9.007633449E0
1.247070017E1,1.935475159E0,2.800975342E0,8.215964813E0,8.893458538E0
1.248070617E1,2.052980804E0,2.673739929E0,8.104895782E0,8.777981034E0
1.249071217E1,2.093247070E0,2.590962067E0,7.876770172E0,8.552091912E0
1.250071817E1,2.095791779E0,2.621348877E0,7.623945923E0,8.329967860E0
1.251072417E1,2.124232635E0,2.772833862E0,7.451654205E0,8.229709734E0
1.252073017E1,2.051184540E0,2.939138031E0,7.405550079E0,8.227275513E0
1.253073617E1,1.937421112E0,2.961741028E0,7.419321442E0,8.220209312E0
1.254074217E1,1.740879822E0,2.928360443E0,7.315736847E0,8.070065864E0
1.255074817E1,1.535207520E0,2.935246124E0,7.162904663E0,7.891751083E0
1.256075417E1,1.450932770E0,3.007396088E0,6.819668427E0,7.593254545E0
1.257076017E1,1.428030396E0,3.181933136E0,6.293213196E0,7.195033122E0
1.258076617E1,1.371298370E0,3.447929993E0,5.680836639E0,6.785321317E0
1.259077217E1,1.396296387E0,3.839066620E0,5.182971954E0,6.599338936E0
1.260077817E1,1.367107086E0,4.282444611E0,4.813540192E0,6.586234342E0
1.261078417E1,1.232536926E0,4.582271118E0,4.524790649E0,6.556682568E0
1.262079017E1,1.145567780E0,4.864134979E0,4.254901886E0,6.563255647E0
1.263079617E1,1.129251709E0,5.252427521E0,4.123624878E0,6.772553907E0
1.264080217E1,1.030157776E0,5.641318817E0,4.258644104E0,7.142951256E0
1.265080817E1,1.025816803E0,5.959706726E0,4.770280151E0,7.702335821E0
1.266081417E1,1.072819061E0,6.117179260E0,5.575755157E0,8.346248763E0
1.267082017E1,1.158441010E0,6.159840546E0,6.372099152E0,8.938079700E0
1.268082617E1,1.166374512E0,6.173312531E0,7.126230927E0,9.500178120E0
1.269083217E1,1.211730194E0,6.109545135E0,8.012088776E0,1.014831998E1
1.270083817E1,1.303788757E0,5.931565247E0,8.901389465E0,1.077580929E1
1.271084417E1,1.318158875E0,5.792803802E0,9.485923920E0,1.119271510E1
1.272085017E1,1.241667938E0,5.687123566E0,9.732610931E0,1.134058329E1
1.273085617E1,1.074765015E0,5.531297607E0,9.620643768E0,1.114931207E1
1.274086317E1,8.714877319E-1,5.493725739E0,9.094637604E0,1.066081359E1
1.275086917E1,7.792794800E-1,5.568420410E0,8.498577118E0,1.019021076E1
1.276087517E1,8.506809998E-1,5.678291931E0,8.209528198E0,1.001813409E1
1.277088117E1,9.996212769E-1,5.720953217E0,8.145461426E0,1.000385377E1
1.278088717E1,1.060843964E0,5.688770142E0,8.165669403E0,1.000827919E1
1.279089317E1,1.234931946E0,5.476361847E0,8.589288483E0,1.026116332E1
1.280089917E1,1.521885223E0,5.119204559E0,9.366622009E0,1.078220746E1
1.281090517E1,1.782044220E0,4.709356842E0,1.030981064E1,1.147370554E1
1.282091117E1,1.990111542E0,4.277504883E0,1.097906891E1,1.194979272E1
1.283091717E1,2.133363647E0,3.964805145E0,1.109567642E1,1.197434573E1
1.284092317E1,2.411934357E0,3.983516235E0,1.098026642E1,1.192694762E1
1.285092950E1,2.939437408E0,4.083657990E0,1.086695206E1,1.197527460E1
1.286093550E1,3.740122375E0,4.088597717E0,1.115794693E1,1.245812692E1
1.287094150E1,4.883594513E0,3.944447479E0,1.187765030E1,1.343453527E1
1.288094750E1,5.729635162E0,3.732488251E0,1.287113434E1,1.457485118E1
1.289095350E1,6.329737244E0,3.416645050E0,1.401266052E1,1.575099019E1
1.290095950E1,6.894363098E0,3.031196594E0,1.479807724E1,1.660432128E1
1.291096550E1,7.326364746E0,2.680924988E0,1.513921783E1,1.703111552E1
1.292097150E1,7.523953857E0,2.476300507E0,1.462578552E1,1.663296570E1
1.293097750E1,7.298672333E0,2.462828522E0,1.309626617E1,1.519369375E1
1.294098350E1,6.712341614E0,2.609523468E0,1.105151825E1,1.319095138E1
1.295098950E1,6.392756195E0,2.736758881E0,9.379794617E0,1.167637478E1
1.296099550E1,6.220314789E0,2.776576080E0,8.059390411E0,1.055250987E1
1.297100150E1,5.876779175E0,2.793790283E0,7.073839874E0,9.611503950E0
1.298100750E1,5.484894104E0,2.832110596E0,6.558162231E0,9.006353625E0
1.299101350E1,4.876559143E0,2.772684174E0,6.529272308E0,8.608135889E0
1.300101950E1,4.312831421E0,2.629432068E0,6.774462433E0,8.450311776E0
1.301102550E1,3.871998138E0,2.531835022E0,7.240443420E0,8.592239469E0
1.302103150E1,3.492387543E0,2.545606384E0,7.791597290E0,8.909874912E0
1.303103750E1,3.230132904E0,2.738854523E0,8.325536957E0,9.340752020E0
1.304104350E1,3.038231964E0,2.925666046E0,8.606352997E0,9.584345945E0
1.305104950E1,2.906655579E0,3.111130371E0,8.551566925E0,9.552856940E0
1.306105550E1,2.776576080E0,3.422782288E0,8.203690338E0,9.312644548E0
1.307106150E1,2.635269928E0,3.786525879E0,7.653733978E0,8.936558042E0
1.308106750E1,2.496358795E0,4.115691376E0,7.070696411E0,8.553681691E0
1.309107350E1,2.387385406E0,4.445904694E0,6.618486786E0,8.322862786E0
1.310107950E1,2.458637238E0,4.828059998E0,6.363117828E0,8.357291960E0
1.311108550E1,2.494113464E0,5.288652191E0,6.183940430E0,8.510673487E0
1.312109150E1,2.422562256E0,5.773344269E0,5.869594116E0,8.582100385E0
1.313109750E1,2.228715363E0,6.167774048E0,5.685027924E0,8.679179187E0
1.314110350E1,1.886976013E0,6.375392303E0,6.022276611E0,8.970736931E0
1.315110950E1,1.551523590E0,6.304439850E0,6.998097382E0,9.546022954E0
1.316111550E1,1.235830078E0,5.912554779E0,7.881111145E0,9.929627026E0
1.317112150E1,7.725434875E-1,5.448669434E0,8.419691162E0,1.005862920E1
1.318112750E1,2.695893860E-1,4.999902649E0,8.621471558E0,9.970028924E0
1.319113350E1,8.367599487E-2,4.562811584E0,8.718170471E0,9.840363184E0
1.320113950E1,1.079255676E-1,4.200415192E0,8.634195099E0,9.602315383E0
1.321114550E1,2.896476746E-1,3.872447205E0,8.134983215E0,9.014305023E0
1.322115150E1,5.468128967E-1,3.630250854E0,7.451953583E0,8.307185914E0
1.323115750E1,7.719447327E-1,3.524420929E0,6.697223053E0,7.607249054E0
1.324116350E1,8.054750061E-1,3.431464233E0,5.836512909E0,6.818256354E0
1.325116950E1,8.532257080E-1,3.329226837E0,5.271587677E0,6.292962901E0
1.326117550E1,1.063089294E0,3.350332947E0,5.061275024E0,6.162093360E0
1.327118150E1,1.437610474E0,3.442092133E0,5.158423004E0,6.365850298E0
1.328118750E1,2.066003723E0,3.498225403E0,5.574857025E0,6.898186950E0
1.329119450E1,2.412233734E0,3.498973846E0,6.128854980E0,7.458186974E0
1.330120050E1,2.436183929E0,3.476221161E0,6.452182617E0,7.723326111E0
1.331120650E1,2.625091095E0,3.582350464E0,6.692283325E0,8.031873642E0
1.332121250E1,2.830314331E0,3.760629730E0,6.803801422E0,8.273132960E0
1.333121850E1,2.896327057E0,4.031117249E0,6.700366516E0,8.338676642E0
1.334122450E1,2.708916779E0,4.537214813E0,6.341412964E0,8.254578533E0
1.335123050E1,2.500550079E0,5.117857361E0,6.139632568E0,8.374980761E0
1.336123650E1,2.383792877E0,5.584137726E0,6.098019104E0,8.605283239E0
1.337124250E1,2.276615753E0,6.036197662E0,6.158493347E0,8.918839712E0
1.338124850E1,2.111658783E0,6.517746277E0,6.494245148E0,9.440092128E0
1.339125450E1,1.804796906E0,6.872807922E0,7.056026917E0,1.001400502E1
1.340126050E1,1.470991058E0,7.106472015E0,7.574698334E0,1.049008170E1
1.341126650E1,1.224154358E0,7.203619995E0,8.113577728E0,1.091882954E1
1.342127250E1,8.894503784E-1,7.233707428E0,8.391699371E0,1.111477681E1
1.343127850E1,3.986210632E-1,7.348818054E0,8.131839752E0,1.096771824E1
1.344128450E1,3.921844482E-2,7.506589966E0,7.796387329E0,1.082285020E1
1.345129050E1,-2.544708252E-2,7.652985535E0,7.576344910E0,1.076892926E1
1.346129650E1,2.613565063E-1,7.776927795E0,7.821535034E0,1.103291999E1
1.347130250E1,8.870553589E-1,7.664661255E0,8.911568298E0,1.178770329E1
1.348130850E1,1.494641876E0,7.115303650E0,1.092428284E1,1.312255523E1
1.349131450E1,1.628014526E0,5.957461395E0,1.387539597E1,1.518777109E1
1.350132050E1,1.395398254E0,4.536017303E0,1.706526260E1,1.771287038E1
1.351132650E1,9.376501465E-1,3.459755402E0,1.899325333E1,1.932854798E1
1.352133250E1,2.549198914E-1,2.660866699E0,1.931912567E1,1.950317442E1
1.353133850E1,-1.722917175E-1,2.191442871E0,1.849748428E1,1.862764159E1
1.354134450E1,-2.649490356E-1,1.985770569E0,1.733185822E1,1.744725743E1
1.355135050E1,-7.304809570E-2,2.216141510E0,1.574590622E1,1.590126353E1
1.356135650E1,2.269281006E-1,2.714006195E0,1.419049072E1,1.444947587E1
1.357136250E1,5.879772949E-1,3.092419281E0,1.282847305E1,1.320903082E1
1.358136850E1,1.089284821E0,3.595672760E0,1.152034332E1,1.211749621E1
1.359137450E1,1.108295288E0,4.091292114E0,1.040246796E1,1.123291277E1
1.360138050E1,9.689350891E-1,4.314477997E0,9.525441742E0,1.050179013E1
1.361138650E1,8.680448914E-1,4.410129089E0,8.783285065E0,9.866551426E0
1.362139250E1,7.994874573E-1,4.594246216E0,8.244106293E0,9.471619030E0
1.363139850E1,7.461982727E-1,4.724924469E0,8.009095001E0,9.328843757E0
1.364140450E1,7.691006470E-1,4.773273926E0,8.221802673E0,9.538013366E0
1.365141050E1,9.505233765E-1,4.634512482E0,8.673413544E0,9.879792666E0
1.366141650E1,1.056353302E0,4.268822937E0,9.281000061E0,1.027013601E1
1.367142250E1,1.007405090E0,3.884571991E0,9.647887115E0,1.044923396E1
1.368142850E1,1.125958557E0,3.616329803E0,9.690847778E0,1.040471790E1
1.369143450E1,1.464704132E0,3.397634583E0,9.485474854E0,1.018152799E1
1.370144050E1,1.835183716E0,3.290457458E0,8.725804596E0,9.504455555E0
1.371144650E1,2.062261505E0,3.262016602E0,7.677534485E0,8.592916303E0
1.372145250E1,2.284249878E0,3.129093018E0,6.784940643E0,7.813094147E0
1.373145850E1,2.456391907E0,2.963986359E0,5.919290771E0,7.060954579E0
1.374146450E1,2.417472839E0,2.977158966E0,5.272485809E0,6.519720627E0
1.375147050E1,2.633323975E0,3.101999359E0,4.954097900E0,6.410918903E0
1.376147650E1,2.965034180E0,3.320395203E0,4.906945953E0,6.625297773E0
1.377148250E1,3.265459442E0,3.601061554E0,4.891528015E0,6.896224765E0
1.378148850E1,2.974614258E0,3.844605103E0,4.537214813E0,6.649483938E0
1.379149450E1,2.173180847E0,4.007167053E0,3.780238953E0,5.922019024E0
1.380150050E1,1.050964508E0,3.946992188E0,2.982847137E0,5.057731781E0
1.381150650E1,-2.248324585E-1,3.872896271E0,2.442470856E0,4.584270830E0
1.382151250E1,-1.319805450E0,4.146826630E0,2.275118866E0,4.910623522E0
1.383151850E1,-2.257605286E0,4.766238556E0,2.308349762E0,5.756934099E0
1.384152450E1,-2.687960358E0,5.641318817E0,2.711910553E0,6.812053121E0
1.385153025E1,-2.473007355E0,6.534212036E0,3.453318787E0,7.793401244E0
1.386153625E1,-2.108665009E0,7.319778442E0,4.140090637E0,8.669831316E0
1.387154225E1,-1.651216278E0,7.861501923E0,4.811294861E0,9.363668400E0
1.388154825E1,-1.148411865E0,8.210276642E0,5.920637970E0,1.018731792E1
1.389155425E1,-8.044271851E-1,8.183632050E0,7.063211975E0,1.084010609E1
1.390156025E1,-4.385879517E-1,7.924670563E0,8.332722015E0,1.150769391E1
1.391156625E1,-2.106120300E-1,7.469766541E0,9.530531158E0,1.211085438E1
1.392157225E1,-5.044509888E-2,6.815477142E0,1.023421783E1,1.229603546E1
1.393157825E1,-6.661148071E-2,6.301296387E0,1.004501129E1,1.185803631E1
1.394158425E1,-1.532812500E-1,5.941893768E0,9.022637329E0,1.080451670E1
1.395159025E1,-1.212478638E-1,6.002218323E0,7.929909668E0,9.946094368E0
1.396159625E1,5.972579956E-2,6.381978607E0,7.328759766E0,9.718227092E0
1.397160225E1,4.495152283E-1,6.589447174E0,7.167545013E0,9.746618876E0
1.398160825E1,8.265811157E-1,6.735693054E0,7.368427277E0,1.001731091E1
1.399161425E1,8.909472656E-1,6.732399902E0,7.897127838E0,1.041554720E1
1.400162025E1,7.711962891E-1,6.431076508E0,8.437354431E0,1.063684345E1
1.401162625E1,7.662565613E-1,6.108796692E0,8.938063202E0,1.085327231E1
1.402163225E1,6.911128235E-1,5.831423492E0,9.300758972E0,1.099942064E1
1.403163825E1,8.252339172E-1,5.562133484E0,9.429940338E0,1.097916730E1
1.404164425E1,1.479523315E0,5.521717529E0,9.264833679E0,1.088648230E1
1.405165025E1,2.270478516E0,5.830375671E0,9.150321808E0,1.108497823E1
1.406165725E1,3.046165466E0,6.154002686E0,9.507179718E0,1.172763144E1
1.407166225E1,3.664679260E0,5.989644470E0,1.033765274E1,1.249691078E1
1.408166925E1,3.934418335E0,5.483397217E0,1.119132751E1,1.306878358E1
1.409167525E1,3.727548523E0,5.002447357E0,1.157318344E1,1.314753485E1
1.410168125E1,3.460653534E0,4.517306213E0,1.196581696E1,1.325001712E1
1.411168725E1,3.103645935E0,4.136049042E0,1.242835510E1,1.346118607E1
1.412169325E1,2.722239075E0,4.027674408E0,1.267683838E1,1.357700180E1
1.413169925E1,2.567161560E0,3.975283356E0,1.273626480E1,1.358696571E1
1.414170525E1,2.580483856E0,3.745960236E0,1.274749146E1,1.353475724E1
1.415171125E1,2.694846039E0,3.599714355E0,1.260768219E1,1.338558138E1
1.416171725E1,3.079396362E0,3.615731049E0,1.195698532E1,1.286567880E1
1.417172325E1,3.595672760E0,3.798650665E0,1.091904373E1,1.210719313E1
1.418172925E1,4.019142151E0,4.097579041E0,9.733359375E0,1.129964346E1
1.419173525E1,4.281995544E0,4.454736328E0,8.796906738E0,1.075015022E1
1.420174125E1,4.305945740E0,4.641398163E0,7.873327332E0,1.010311976E1
1.421174725E1,4.154011688E0,4.649331665E0,6.950945435E0,9.337437575E0
1.422175325E1,3.705244904E0,4.614005127E0,6.283932495E0,8.631667899E0
1.423175925E1,3.220253448E0,4.474046173E0,6.015989685E0,8.159611101E0
1.424176525E1,2.630779266E0,4.176315308E0,6.183641052E0,7.912017806E0
1.425177125E1,1.919308777E0,3.924688568E0,6.825506287E0,8.103978196E0
1.426177725E1,1.545086975E0,3.849395142E0,7.457342377E0,8.533293153E0
1.427178325E1,1.481169891E0,3.982917480E0,7.757468262E0,8.845100889E0
1.428178925E1,1.482816467E0,4.245022430E0,7.727680206E0,8.940693568E0
1.429179525E1,1.350791016E0,4.276157684E0,7.326364746E0,8.589865034E0
1.430180125E1,1.296753387E0,4.287234650E0,6.889872437E0,8.217803385E0
1.431180725E1,1.221609650E0,4.319717102E0,6.448889465E0,7.857509867E0
1.432181325E1,1.186133423E0,4.331392822E0,6.049819336E0,7.534466821E0
1.433181925E1,1.212179260E0,4.405788116E0,5.657485199E0,7.272378309E0
1.434182525E1,1.301992493E0,4.420307922E0,5.187612305E0,6.938705067E0
1.435183125E1,1.328936462E0,4.402944031E0,4.924908600E0,6.738450339E0
1.436183725E1,1.326092377E0,4.360731812E0,4.990172882E0,6.758426468E0
1.437184325E1,1.225202179E0,4.326902161E0,5.049000549E0,6.761331913E0
1.438184925E1,1.011446686E0,4.319268036E0,5.175038452E0,6.816166353E0
1.439185525E1,9.144483948E-1,4.318519592E0,5.220843201E0,6.836887527E0
1.440186125E1,6.595285034E-1,4.342769165E0,5.085524597E0,6.719909396E0
1.441186725E1,5.906716919E-1,4.456532593E0,5.035678253E0,6.750380083E0
1.442187325E1,6.307882690E-1,4.654870148E0,5.015021210E0,6.871400706E0
1.443187925E1,6.813830566E-1,4.802163849E0,4.863536224E0,6.868700394E0
1.444188525E1,6.391708374E-1,4.977000275E0,4.840633850E0,6.972145091E0
1.445189125E1,3.833528137E-1,5.044060822E0,4.955445099E0,7.081380168E0
1.446189725E1,2.405497742E-1,5.007387085E0,5.142106934E0,7.181438110E0
1.447190325E1,1.628613281E-1,5.111420746E0,5.448819122E0,7.472802398E0
1.448190925E1,1.187031555E-1,5.302273865E0,5.793701935E0,7.854627979E0
1.449191525E1,2.760260010E-1,5.540877686E0,6.274202728E0,8.375149894E0
1.450192125E1,5.944139099E-1,5.772745514E0,7.000342712E0,9.093003726E0
1.451192725E1,8.878038025E-1,5.847290497E0,8.030051422E0,9.972999929E0
1.452193325E1,1.282083893E0,5.869743805E0,9.210346985E0,1.099673238E1
1.453193925E1,1.631756744E0,5.889652405E0,1.008767258E1,1.179456542E1
1.454194525E1,1.761836243E0,5.830675049E0,1.067026108E1,1.228638718E1
1.455195125E1,1.720372467E0,5.740113373E0,1.086216202E1,1.240544827E1
1.456195725E1,1.532363434E0,5.665418701E0,1.039737854E1,1.193945507E1
1.457196325E1,1.277742920E0,5.677094421E0,9.623338165E0,1.124591773E1
1.458196925E1,1.147962799E0,5.905519409E0,8.947343903E0,1.078183384E1
1.459197525E1,1.176253967E0,6.192173309E0,8.959319000E0,1.095426769E1
1.460198125E1,1.270408173E0,6.209537201E0,9.343569946E0,1.129046450E1
1.461198725E1,1.269809418E0,6.195765839E0,9.878108368E0,1.172932032E1
1.462199325E1,1.141975250E0,6.189029846E0,1.049856812E1,1.224043016E1
1.463199925E1,6.515950012E-1,6.028563538E0,1.058209442E1,1.219626487E1
1.464200525E1,1.219963074E-1,5.928571472E0,1.030427216E1,1.188868653E1
1.465201125E1,-2.222877502E-1,6.069278870E0,1.022164398E1,1.188980923E1
1.466201725E1,-3.038681030E-1,6.161936188E0,1.058404037E1,1.225086544E1
1.467202325E1,-2.658471680E-1,6.024671631E0,1.122171432E1,1.273947469E1
1.468202925E1,-7.185058594E-3,5.860612793E0,1.207943069E1,1.342607463E1
1.469203525E1,2.618055725E-1,5.694608002E0,1.292726761E1,1.412838810E1
1.470204125E1,3.607498169E-1,5.391188965E0,1.334145630E1,1.439407917E1
1.471204725E1,4.903802490E-1,5.088967438E0,1.334774323E1,1.429336600E1
1.472205325E1,8.701405334E-1,4.757257233E0,1.330029190E1,1.415225797E1
1.473205925E1,1.184786224E0,4.415068817E0,1.339384735E1,1.415244495E1
1.474206525E1,1.230141907E0,3.994593201E0,1.336271210E1,1.400114633E1
1.475207125E1,1.165326691E0,3.410956879E0,1.322110657E1,1.370365907E1
1.476207725E1,9.244775391E-1,2.760858765E0,1.295256500E1,1.327576514E1
1.477208325E1,3.369493103E-1,2.177222443E0,1.241203903E1,1.260605193E1
1.478208925E1,-2.565664673E-1,1.791923676E0,1.151330795E1,1.165474482E1
1.479209525E1,-5.992039490E-1,1.800755310E0,1.060110489E1,1.076964205E1
1.480210125E1,-6.978488159E-1,2.059417419E0,9.807604980E0,1.004576072E1
1.481210725E1,-7.409591675E-1,2.478246460E0,9.012159119E0,9.376019304E0
1.482211325E1,-6.176156616E-1,2.904559937E0,8.492439880E0,8.996635630E0
1.483211925E1,-4.480183411E-1,3.360960846E0,8.119864655E0,8.799373856E0
1.484212525E1,-3.505709839E-1,3.682342529E0,7.979606323E0,8.795263702E0
1.485213150E1,1.453477478E-1,3.870950317E0,8.265960846E0,9.128608384E0
1.486213750E1,6.730004883E-1,4.110302582E0,8.992998962E0,9.910678448E0
1.487214350E1,1.000968475E0,4.126319275E0,9.881401520E0,1.075502416E1
1.488214950E1,1.141526184E0,3.833827515E0,1.046982788E1,1.120797088E1
1.489215550E1,9.613009644E-1,3.501668243E0,1.074136322E1,1.133854770E1
1.490216150E1,6.945556641E-1,3.155887299E0,1.095931000E1,1.142578259E1
1.491216750E1,3.752696228E-1,2.773582306E0,1.071292236E1,1.107250160E1
1.492217350E1,-8.307723999E-2,2.504292297E0,1.009066635E1,1.039711158E1
1.493217950E1,-5.322930908E-1,2.432741089E0,9.363179169E0,9.688688729E0
1.494218550E1,-1.029109955E0,2.572999420E0,8.946445770E0,9.365804036E0
1.495219150E1,-1.643282776E0,2.822231140E0,8.738977203E0,9.329259855E0
1.496219750E1,-2.394420776E0,2.964435425E0,8.372239838E0,9.198669912E0
1.497220350E1,-3.120560760E0,3.070115662E0,7.980205078E0,9.102042778E0
1.498220950E1,-3.482957153E0,3.166814575E0,8.048912201E0,9.324413799E0
1.499221550E1,-2.831960907E0,3.258873138E0,9.025930481E0,1.000538244E1
1.500222150E1,-1.799408112E0,3.481909332E0,9.947563934E0,1.069184691E1
1.501222750E1,-9.044192505E-1,3.457061005E0,1.002719833E1,1.064490260E1
1.502223350E1,-1.059796143E-1,3.279230804E0,9.378447418E0,9.935786950E0
1.503223950E1,6.104306030E-1,3.220702515E0,8.626261597E0,9.228105946E0
1.504224550E1,1.254391479E0,3.372187500E0,7.959697723E0,8.735097845E0
1.505225150E1,1.684147797E0,3.680995331E0,7.149582367E0,8.215997106E0
1.506225750E1,1.947899323E0,4.126169586E0,6.264922028E0,7.750408714E0
1.507226350E1,2.146236877E0,4.608466644E0,5.633385315E0,7.588104352E0
1.508226950E1,2.501148834E0,4.915927277E0,5.354066162E0,7.686879142E0
1.509227550E1,2.757415924E0,5.212760010E0,5.377866669E0,7.981081343E0
1.510228150E1,2.778372345E0,5.375321960E0,5.260061646E0,8.017586144E0
1.511228750E1,2.761008453E0,5.413791962E0,5.032235413E0,7.890228408E0
1.512229350E1,2.705923004E0,5.372477875E0,4.843927002E0,7.723287294E0
1.513229950E1,2.703378296E0,5.352868652E0,4.813390503E0,7.689615410E0
1.514230550E1,2.641107788E0,5.358107758E0,4.956193542E0,7.761998681E0
1.515231150E1,2.613265686E0,5.381758575E0,5.129832458E0,7.880841577E0
1.516231750E1,2.646047516E0,5.440586243E0,5.105133820E0,7.916055674E0
1.517232350E1,2.848875732E0,5.595214691E0,5.088967438E0,8.082085743E0
1.518232950E1,3.032992859E0,5.902974701E0,4.957091675E0,8.283532693E0
1.519233550E1,3.259022827E0,6.231092377E0,4.578678589E0,8.391188212E0
1.520234150E1,3.367547150E0,6.571185150E0,4.360731812E0,8.575361801E0
1.521234750E1,3.308420105E0,6.744524689E0,4.456382904E0,8.734621083E0
1.522235350E1,3.279979248E0,6.795418854E0,4.770579529E0,8.927172582E0
1.523235950E1,3.177442474E0,6.769672394E0,5.196743317E0,9.106631984E0
1.524236550E1,2.945424957E0,6.878945160E0,5.772296448E0,9.450651881E0
1.525237150E1,2.743644562E0,6.888076172E0,6.194718018E0,9.661661873E0
1.526237750E1,2.686313782E0,6.788982239E0,6.510561218E0,9.782329423E0
1.527238350E1,2.869682465E0,6.804400177E0,6.819369049E0,1.005180250E1
1.528238950E1,3.278482361E0,6.867419128E0,7.512727203E0,1.069350093E1
1.529239550E1,3.940405884E0,6.894213409E0,8.383316803E0,1.154716319E1
1.530240150E1,4.709057465E0,6.927144928E0,9.479636993E0,1.265006232E1
1.531240750E1,5.206473083E0,6.693929901E0,1.066008224E1,1.362179918E1
1.532241350E1,5.415737915E0,6.131100311E0,1.171448959E1,1.428810256E1
1.533241950E1,5.440885620E0,5.560337219E0,1.257564880E1,1.478741117E1
1.534242550E1,5.473517761E0,5.114564209E0,1.327140198E1,1.523969403E1
1.535243150E1,5.569767609E0,4.760700073E0,1.392419449E1,1.573434996E1
1.536243750E1,5.551655273E0,4.468058624E0,1.411340103E1,1.581051906E1
1.537244350E1,5.547763367E0,4.263583832E0,1.364562378E1,1.533489073E1
1.538244950E1,5.598507843E0,4.221970367E0,1.260423935E1,1.442342447E1
1.539245550E1,5.483696594E0,4.202211456E0,1.131616791E1,1.325839981E1
1.540246150E1,5.332061920E0,4.042194214E0,1.013407608E1,1.214371098E1
1.541246750E1,5.202132111E0,3.954776001E0,8.973389740E0,1.110063760E1
1.542247350E1,4.963528290E0,4.035907288E0,7.933651886E0,1.019156479E1
1.543247950E1,4.673730927E0,4.129462738E0,7.013365631E0,9.385282135E0
1.544248550E1,4.377347260E0,4.026626587E0,6.307583313E0,8.669515439E0
1.545249150E1,4.040098572E0,3.890709229E0,5.948480072E0,8.175844295E0
1.546249750E1,3.727548523E0,3.850442963E0,5.764812012E0,7.871060064E0
1.547250350E1,3.504512329E0,3.771706696E0,5.645959167E0,7.640957596E0
1.548250950E1,3.303630066E0,3.598217468E0,5.572911072E0,7.410700262E0
1.549251550E1,3.096311188E0,3.430117035E0,5.490881653E0,7.176533088E0
1.550252150E1,3.051703949E0,3.294199677E0,5.318589935E0,6.960750491E0
1.551252750E1,2.953508148E0,3.228037262E0,4.987328796E0,6.634522098E0
1.552253350E1,2.931054840E0,3.288361816E0,4.493356018E0,6.292428324E0
1.553253950E1,3.011587372E0,3.519930267E0,3.876488800E0,6.040424902E0
1.554254550E1,3.025957489E0,3.667523346E0,3.144061890E0,5.700199241E0
1.555255150E1,3.192860413E0,3.774850159E0,2.721640320E0,5.643684733E0
1.556255750E1,3.199297028E0,3.927083588E0,2.783461761E0,5.779718536E0
1.557256350E1,3.082839203E0,3.950884094E0,3.517984314E0,6.122874840E0
1.558256950E1,3.114872589E0,3.844904480E0,4.598736877E0,6.755301812E0
1.559257550E1,3.234922943E0,3.848347321E0,5.504952393E0,7.455132755E0
1.560258150E1,3.398682404E0,4.031266937E0,6.205345917E0,8.143001483E0
1.561258750E1,3.493285675E0,4.333338776E0,6.662046204E0,8.681228563E0
1.562259350E1,3.516188049E0,4.364773407E0,6.891219635E0,8.882777344E0
1.563259950E1,3.509002991E0,4.316573639E0,6.779701538E0,8.769849652E0
1.564260550E1,3.521277466E0,4.464615784E0,6.379134521E0,8.545498600E0
1.565261150E1,3.728446655E0,4.863236847E0,6.112987976E0,8.655692294E0
1.566261750E1,3.633244629E0,5.102738800E0,6.018534393E0,8.686838668E0
1.567262350E1,3.421884155E0,5.004542999E0,5.959557037E0,8.501238844E0
1.568262950E1,3.167413330E0,5.008584595E0,6.038892059E0,8.460889087E0
1.569263550E1,2.765798492E0,5.016518097E0,6.300248566E0,8.515176282E0
1.570264150E1,2.435884552E0,5.012626190E0,6.536307678E0,8.589719026E0
1.571264750E1,2.331551514E0,5.213658142E0,6.637048187E0,8.756070598E0
1.572265350E1,2.220931549E0,5.536836090E0,6.893015900E0,9.116071469E0
1.573265950E1,2.159858551E0,5.782924347E0,7.228168945E0,9.505452607E0
1.574266550E1,2.259251862E0,6.054459686E0,7.697592773E0,1.005055399E1
1.575267150E1,2.310595093E0,6.374793549E0,8.164771271E0,1.061321499E1
1.576267750E1,2.345023499E0,6.556665344E0,8.407716064E0,1.091689906E1
1.577268350E1,2.551144867E0,6.594386902E0,8.732690277E0,1.123628756E1
1.578268950E1,2.743045807E0,6.704408112E0,8.992100830E0,1.154691586E1
1.579269550E1,2.760858765E0,6.706204376E0,9.008716278E0,1.156514104E1
1.580270150E1,2.683918762E0,6.617888031E0,8.945098572E0,1.144616313E1
1.581270750E1,2.430944824E0,6.525829468E0,9.013206940E0,1.139007648E1
1.582271350E1,1.985471191E0,6.361620941E0,8.901389465E0,1.111966957E1
1.583271950E1,1.474583588E0,6.192322998E0,8.724457397E0,1.079978786E1
1.584272550E1,1.089584198E0,6.135740662E0,8.612041168E0,1.063022861E1
1.585273062E1,8.776249695E-1,6.060147858E0,8.828041992E0,1.074383279E1
1.586273662E1,1.030008087E0,5.882467346E0,9.344468079E0,1.108978911E1
1.587274262E1,1.489702148E0,5.726342010E0,9.959838409E0,1.158484296E1
1.588274863E1,1.643881531E0,5.713917847E0,1.027897476E1,1.187470108E1
1.589275462E1,1.697919159E0,5.749244385E0,1.043510010E1,1.203445281E1
1.590276062E1,1.938468933E0,5.786217499E0,1.096754288E1,1.255089525E1
1.591276662E1,2.107168121E0,5.685926056E0,1.163799866E1,1.312299224E1
1.592277262E1,2.111060028E0,5.503455505E0,1.231848358E1,1.365612078E1
1.593277863E1,1.983225861E0,5.221441956E0,1.294942154E1,1.410262951E1
1.594278462E1,1.852996674E0,4.800816650E0,1.342064163E1,1.437341501E1
1.595279062E1,1.643582153E0,4.438569946E0,1.365415604E1,1.445123671E1
1.596279662E1,1.435065765E0,4.131259003E0,1.409603714E1,1.475889487E1
1.597280263E1,1.350192261E0,3.863465881E0,1.463746124E1,1.519883744E1
1.598280862E1,1.491648102E0,3.621119843E0,1.490839783E1,1.541420931E1
1.599281462E1,1.737137604E0,3.424578552E0,1.473341171E1,1.522559707E1
1.600282062E1,1.909728699E0,3.154240723E0,1.407597885E1,1.455092708E1
1.601282663E1,1.949545898E0,2.974913635E0,1.315524353E1,1.362759233E1
1.602283262E1,1.884580994E0,3.011437683E0,1.180834442E1,1.233115568E1
1.603283862E1,1.884431305E0,3.217858429E0,1.047431854E1,1.111832016E1
1.604284462E1,2.089953918E0,3.475622406E0,9.480834503E0,1.031184180E1
1.605285063E1,2.438429260E0,3.834725647E0,8.866062927E0,9.962837441E0
1.606285662E1,2.786904602E0,4.254602509E0,8.401279449E0,9.820894875E0
1.607286262E1,3.051254883E0,4.489763489E0,8.073012085E0,9.728394352E0
1.608286862E1,3.137325897E0,4.557422791E0,8.090675354E0,9.801629658E0
1.609287462E1,3.059338074E0,4.386478271E0,8.424630890E0,9.978734725E0
1.610288063E1,2.955454102E0,4.032165070E0,8.787476349E0,1.011003485E1
1.611288662E1,2.961591339E0,3.788621521E0,9.154513092E0,1.034068597E1
1.612289262E1,2.784060516E0,3.628304901E0,9.381740570E0,1.043708032E1
1.613289862E1,2.449206848E0,3.363804932E0,9.394164734E0,1.027444056E1
1.614290463E1,2.154769135E0,3.154689789E0,9.230255585E0,9.989630416E0
1.615291062E1,1.883982239E0,3.050506439E0,8.990603943E0,9.679149646E0
1.616291662E1,1.587897949E0,2.949017487E0,8.821006622E0,9.435479949E0
1.617292262E1,1.526824951E0,2.861449585E0,8.618777161E0,9.208822286E0
1.618292863E1,1.492995300E0,2.862647095E0,8.369695129E0,8.970818241E0
1.619293362E1,1.397793274E0,2.898273010E0,8.207582245E0,8.815793713E0
1.620293962E1,1.359622650E0,2.900668030E0,8.402327271E0,8.992305173E0
1.621294562E1,1.298849030E0,2.876268768E0,8.735534363E0,9.288137135E0
1.622295163E1,1.314566345E0,2.733465729E0,8.602760468E0,9.121809427E0
1.623295762E1,1.480870514E0,2.690205688E0,7.886499939E0,8.463277463E0
1.624296362E1,1.676363983E0,2.941832428E0,6.730004883E0,7.533760015E0
1.625296962E1,1.952240295E0,3.504362640E0,5.359005890E0,6.694082746E0
1.626297562E1,2.098935242E0,4.358336792E0,3.894900513E0,6.210545769E0
1.627298163E1,2.010469208E0,5.234614563E0,2.720143433E0,6.232363625E0
1.628298762E1,1.854792938E0,5.746699677E0,1.953737183E0,6.346802580E0
1.629299362E1,1.622326355E0,6.051914978E0,1.738185425E0,6.502223179E0
1.630299962E1,1.552571411E0,6.329288177E0,1.968256989E0,6.807672318E0
1.631300563E1,1.376836853E0,6.537205811E0,2.508184204E0,7.135946155E0
1.632301162E1,1.311123505E0,6.540349274E0,3.382516022E0,7.479079362E0
1.633301762E1,1.346899109E0,6.396498413E0,3.933520203E0,7.629017653E0
1.634302362E1,1.338516541E0,6.314169617E0,3.986060944E0,7.586108774E0
1.635302963E1,1.350940704E0,6.390660553E0,3.977528687E0,7.647634768E0
1.636303562E1,1.547781372E0,6.395749969E0,3.720812531E0,7.559476882E0
1.637304162E1,1.829345856E0,6.519991608E0,3.894451447E0,7.811757094E0
1.638304762E1,2.039658508E0,6.750362549E0,4.457580414E0,8.342519075E0
1.639305363E1,2.204016724E0,6.822512512E0,5.269941101E0,8.898125977E0
1.640305962E1,2.449057159E0,6.630162506E0,6.300847321E0,9.468770395E0
1.641306562E1,2.558030548E0,6.592740326E0,7.020999756E0,9.965048061E0
1.642307162E1,2.360591125E0,6.707401886E0,7.437882843E0,1.028998210E1
1.643307762E1,1.989812164E0,6.623276825E0,7.562872925E0,1.024813130E1
1.644308363E1,1.723964996E0,6.434369659E0,7.798932037E0,1.025653495E1
1.645308962E1,1.633702698E0,6.216123505E0,8.042924652E0,1.029552392E1
1.646309562E1,1.912273407E0,6.094576263E0,8.651259613E0,1.075383384E1
1.647310162E1,2.530787201E0,6.168821869E0,9.590107269E0,1.168029985E1
1.648310763E1,3.094065857E0,6.369554443E0,1.041339523E1,1.259298486E1
1.649311362E1,3.735781403E0,6.518794098E0,1.072789124E1,1.309726649E1
1.650311962E1,4.370461578E0,6.782994690E0,1.105615860E1,1.368753427E1
1.651312562E1,4.843477936E0,6.866670685E0,1.162467636E1,1.434376329E1
1.652313163E1,5.199886780E0,6.681356049E0,1.230546066E1,1.493665636E1
1.653313762E1,5.370980988E0,6.293811951E0,1.301363800E1,1.542122821E1
1.654314362E1,5.454357605E0,5.718707886E0,1.373019791E1,1.584209492E1
1.655314962E1,5.382207642E0,5.193300476E0,1.437146439E1,1.620115791E1
1.656315563E1,5.357958069E0,4.637805634E0,1.459075836E1,1.622057907E1
1.657316162E1,5.509742432E0,4.160448303E0,1.447579742E1,1.603793325E1
1.658316762E1,5.790857849E0,3.843257904E0,1.414438660E1,1.575970616E1
1.659317362E1,6.165828094E0,3.521726532E0,1.371028931E1,1.543994905E1
1.660317963E1,6.220165100E0,3.108585663E0,1.291768753E1,1.467039229E1
1.661318563E1,6.209986267E0,2.777474213E0,1.182780396E1,1.364460475E1
1.662319162E1,5.984405365E0,2.621498566E0,1.047147446E1,1.234249325E1
1.663319762E1,5.589825897E0,2.545905762E0,8.906628571E0,1.081923390E1
1.664320362E1,5.120252380E0,2.533780975E0,7.436236267E0,9.377347188E0
1.665320963E1,4.513114929E0,2.587519226E0,6.623426514E0,8.422187417E0
1.666321562E1,3.941453705E0,2.512225800E0,6.512058105E0,8.015811658E0
1.667322162E1,3.366798706E0,2.405647430E0,6.749763794E0,7.917182855E0
1.668322762E1,2.899320831E0,2.281555481E0,6.925498352E0,7.846915580E0
1.669323363E1,2.503843231E0,2.201172638E0,6.798113251E0,7.571574188E0
1.670323962E1,2.064656525E0,2.170187073E0,6.538852386E0,7.192295115E0
1.671324562E1,1.766626282E0,2.108365631E0,6.267616425E0,6.844646791E0
1.672325162E1,1.550026703E0,2.170336761E0,6.123017120E0,6.678643806E0
1.673325763E1,1.408570862E0,2.271526337E0,6.072122955E0,6.634348571E0
1.674326362E1,1.286574554E0,2.304457855E0,6.227350159E0,6.763556024E0
1.675326962E1,1.177451477E0,2.267933807E0,6.405928802E0,6.896799226E0
1.676327562E1,1.002315674E0,2.214345245E0,6.088139648E0,6.555410434E0
1.677328163E1,9.933343506E-1,2.367476807E0,5.611081696E0,6.170567021E0
1.678328762E1,1.051712952E0,2.665207672E0,5.080734558E0,5.832949144E0
1.679329362E1,1.080902252E0,2.933000793E0,4.439468079E0,5.429523014E0
1.680329962E1,1.148711243E0,3.340603180E0,3.982318726E0,5.323347589E0
1.681330562E1,1.042881317E0,3.742068329E0,3.782184906E0,5.421770881E0
1.682331163E1,1.171164551E0,3.817511444E0,3.930676117E0,5.603145078E0
1.683331762E1,1.085093536E0,3.784729614E0,4.307442627E0,5.835723453E0
1.684332362E1,6.167175293E-1,3.661086731E0,4.595593414E0,5.907907869E0
1.685332992E1,4.701722717E-1,3.424578552E0,4.797972565E0,5.913488053E0
1.686333592E1,4.158352661E-1,3.441942444E0,4.811444550E0,5.930420340E0
1.687334192E1,5.129832458E-1,3.767665100E0,4.662504272E0,6.016427362E0
1.688334792E1,6.101312256E-1,4.366120605E0,4.421056366E0,6.243477288E0
1.689335392E1,6.773414612E-1,4.920867004E0,4.271367645E0,6.551206384E0
1.690335992E1,1.090332642E0,5.400319977E0,4.675377502E0,7.225748121E0
1.691336592E1,1.528022461E0,5.822292480E0,5.638923798E0,8.248115176E0
1.692337192E1,1.856439514E0,5.991889801E0,6.620283051E0,9.120156727E0
1.693337792E1,2.162403259E0,6.075416107E0,7.619006195E0,9.981779607E0
1.694338392E1,2.460134125E0,6.155649261E0,8.893306274E0,1.109212217E1
1.695338992E1,2.779869232E0,6.037245483E0,1.027403503E1,1.223649467E1
1.696339592E1,2.859353943E0,5.782774658E0,1.127889542E1,1.299345487E1
1.697340092E1,2.668500824E0,5.510041809E0,1.181268539E1,1.330492366E1
1.698340692E1,2.135459290E0,5.294789429E0,1.177301788E1,1.308430096E1
1.699341392E1,1.445693665E0,5.160368958E0,1.135628448E1,1.255725429E1
1.700341892E1,8.677455139E-1,5.128335571E0,1.082533859E1,1.201002763E1
