"Time (s)","Acceleration x (m/s^2)","Acceleration y (m/s^2)","Acceleration z (m/s^2)","Absolute acceleration (m/s^2)"
6.323791666E-3,-3.853436737E0,5.878425751E0,6.075266418E0,9.290518072E0
1.632979167E-2,-3.236868896E0,6.112089844E0,5.749843140E0,8.994201390E0
2.633679167E-2,-2.910996552E0,6.115981750E0,5.574108582E0,8.772104660E0
3.634279167E-2,-2.592159576E0,6.223607941E0,5.979465637E0,9.011470267E0
4.634912500E-2,-2.118843842E0,6.527176666E0,6.559808807E0,9.493399078E0
5.635612500E-2,-1.635349274E0,6.631509705E0,6.960076447E0,9.751612808E0
6.636212500E-2,-1.330882416E0,6.571035461E0,7.265142059E0,9.885951860E0
7.636912500E-2,-1.325792999E0,6.461613007E0,7.320377197E0,9.853836412E0
8.637512500E-2,-1.616488495E0,6.484665070E0,7.121440887E0,9.766208908E0
9.638112500E-2,-2.084415436E0,6.745871887E0,6.983427887E0,9.930752251E0
1.063881250E-1,-2.583327942E0,6.944359131E0,6.924001465E0,1.014098138E1
1.163941250E-1,-2.886447601E0,6.936874695E0,6.835535431E0,1.015757623E1
1.264011250E-1,-2.992427216E0,6.673871613E0,6.702761536E0,9.920796094E0
1.364071250E-1,-3.039429474E0,6.292464752E0,6.653064880E0,9.648653610E0
1.464131250E-1,-3.022215271E0,5.983507233E0,6.768624573E0,9.526301620E0
1.564201250E-1,-2.948418732E0,5.907315674E0,7.076833649E0,9.678384472E0
1.664261250E-1,-2.900069275E0,6.017187195E0,7.366331635E0,9.943831519E0
1.764321250E-1,-2.806064758E0,6.151158600E0,7.441475372E0,1.005416865E1
1.864391250E-1,-2.709814911E0,6.239025879E0,7.326364746E0,9.997207668E0
1.964451250E-1,-2.660267944E0,6.267766113E0,7.251071320E0,9.946856431E0
2.064521250E-1,-2.609373779E0,6.299799500E0,7.199728088E0,9.916268946E0
2.164581250E-1,-2.404300232E0,6.450685730E0,7.223229218E0,9.978328834E0
2.264641250E-1,-2.052831116E0,6.598129120E0,7.195387115E0,9.976122454E0
2.364711250E-1,-1.664089508E0,6.596482544E0,7.056775360E0,9.802084183E0
2.464771250E-1,-1.292861481E0,6.436614990E0,6.966063995E0,9.572228107E0
2.564841250E-1,-1.051114197E0,6.146667938E0,7.194938049E0,9.521213228E0
2.664901250E-1,-8.689430237E-1,5.625302124E0,7.422315216E0,9.353600864E0
2.764961250E-1,-8.416996765E-1,5.388494568E0,7.186256104E0,9.021452701E0
2.865031250E-1,-1.019978943E0,5.619763641E0,6.942562866E0,8.990065605E0
2.965091250E-1,-1.074166260E0,5.809868317E0,6.619833984E0,8.873026822E0
3.065151250E-1,-1.159488831E0,5.961952057E0,6.423592072E0,8.840351904E0
3.165221250E-1,-1.722318420E0,6.298751678E0,6.550977173E0,9.249646229E0
3.265281250E-1,-1.913321228E0,6.411467285E0,6.478378143E0,9.313275162E0
3.365341250E-1,-1.729054413E0,6.253395996E0,6.278693390E0,9.028653351E0
3.465411250E-1,-1.310375061E0,5.477858734E0,6.337521057E0,8.478690480E0
3.565471250E-1,-1.224154358E0,4.483476562E0,6.765181732E0,8.207788974E0
3.665541250E-1,-1.723066864E0,4.074227600E0,7.587721252E0,8.783040690E0
3.765601250E-1,-1.804946594E0,4.193529510E0,8.744815063E0,9.864852379E0
3.865661250E-1,-1.088536377E0,4.495152283E0,1.029933243E1,1.129015296E1
3.965731250E-1,-3.956272888E-1,4.623734894E0,1.043734543E1,1.142250519E1
4.065791250E-1,2.365081787E-1,4.683610382E0,1.027672943E1,1.129616351E1
4.165861250E-1,-6.107299805E-2,5.103187866E0,1.060903839E1,1.177276314E1
4.265921250E-1,-2.213896179E-1,5.349575500E0,1.031070877E1,1.161798979E1
4.365981250E-1,1.438508606E-1,5.251978455E0,9.886640625E0,1.119596506E1
4.466051250E-1,3.790118408E-1,4.894372101E0,9.642947388E0,1.082058051E1
4.566111250E-1,3.709286499E-1,4.531826019E0,9.818981323E0,1.082069450E1
4.666171250E-1,3.059637451E-1,4.394561462E0,1.020293289E1,1.111330841E1
4.766241250E-1,1.248403931E-1,4.348157959E0,1.048255142E1,1.134927077E1
4.866301250E-1,-2.559677124E-2,4.272565155E0,1.072250244E1,1.154242292E1
4.966371250E-1,-3.008743286E-2,4.358336792E0,1.084943848E1,1.169214780E1
5.066431250E-1,-3.353027344E-2,4.254003754E0,1.125045456E1,1.202790090E1
5.166491250E-1,6.511459351E-2,3.980971527E0,1.099224152E1,1.169109694E1
5.266561250E-1,1.435514832E-1,3.935765533E0,9.713899841E0,1.048192289E1
5.366621250E-1,3.342549133E-1,4.222419434E0,8.390501862E0,9.398993228E0
5.466691250E-1,5.996530151E-1,4.551734619E0,7.727979584E0,8.988856447E0
5.566751250E-1,6.054908752E-1,4.763993225E0,7.991431732E0,9.323370194E0
5.666811250E-1,6.032455444E-1,4.717140656E0,8.556656342E0,9.789366113E0
5.766881250E-1,9.298663330E-1,4.627926178E0,9.513466644E0,1.062018831E1
5.866941250E-1,1.182840271E0,4.488865356E0,1.028750702E1,1.128635565E1
5.967001250E-1,1.122066650E0,4.142335968E0,1.065783691E1,1.148945031E1
6.067071250E-1,1.096769257E0,3.808230743E0,1.067430267E1,1.138623124E1
6.167131250E-1,9.005273438E-1,3.907624054E0,1.015922379E1,1.092201003E1
6.267201250E-1,6.620732117E-1,4.336182861E0,9.370214539E0,1.034609797E1
6.367261250E-1,9.223818970E-1,4.600084076E0,8.675658875E0,9.862992384E0
6.467321250E-1,9.873468018E-1,4.953499146E0,8.062084808E0,9.513633320E0
6.567391250E-1,1.172212372E0,5.063071289E0,7.819439392E0,9.388951226E0
6.667451250E-1,1.710642700E0,4.898862762E0,8.378676453E0,9.855322111E0
6.767511250E-1,2.101479950E0,4.724325714E0,9.143585815E0,1.050431497E1
6.867581250E-1,2.080523529E0,4.790039062E0,9.470056915E0,1.081457490E1
6.967641250E-1,1.710642700E0,4.891228638E0,9.395661621E0,1.072981236E1
7.067711250E-1,1.097966766E0,4.964276733E0,9.119785309E0,1.044126710E1
7.167771250E-1,1.106049957E0,5.115312653E0,8.736881561E0,1.018444252E1
7.267831250E-1,9.719288635E-1,5.522915039E0,7.959697723E0,9.736735803E0
7.367901250E-1,8.355624390E-1,5.912554779E0,6.965614929E0,9.174762119E0
7.467961250E-1,1.105900269E0,6.197711792E0,6.674021301E0,9.174813741E0
7.568031250E-1,1.674867096E0,6.203549652E0,7.522606659E0,9.893372480E0
7.668091250E-1,3.357667694E0,5.556894379E0,9.569150848E0,1.156380800E1
7.768151250E-1,5.533992004E0,4.904101868E0,1.219169724E1,1.425877849E1
7.868221250E-1,7.127129059E0,4.905299377E0,1.349174377E1,1.602763491E1
7.968281250E-1,7.694000244E0,5.412893829E0,1.298609528E1,1.603545228E1
8.068341250E-1,7.275171204E0,6.387666779E0,1.177137131E1,1.524124619E1
8.168411250E-1,7.133715363E0,7.573500824E0,1.122755219E1,1.530704863E1
8.268471250E-1,7.749085693E0,8.500223694E0,1.174352921E1,1.643814497E1
8.368541250E-1,8.568332062E0,8.915909271E0,1.251248016E1,1.759181379E1
8.468601250E-1,8.855584717E0,8.464148712E0,1.252894592E1,1.752249069E1
8.568661250E-1,8.140072632E0,7.629634094E0,1.221669525E1,1.654447768E1
8.668731250E-1,7.315437469E0,6.913972321E0,1.086515579E1,1.481115286E1
8.768791250E-1,6.122118988E0,6.533313904E0,9.401050415E0,1.298246049E1
8.868851250E-1,4.849315796E0,6.199058990E0,8.493787079E0,1.157966386E1
8.968921250E-1,3.896996155E0,5.912105713E0,7.687863007E0,1.045192856E1
9.068981250E-1,2.925216980E0,5.517526245E0,6.834337921E0,9.257870439E0
9.169051250E-1,1.948348389E0,5.073998566E0,5.961502991E0,8.067282120E0
9.269111250E-1,1.051413574E0,4.687951355E0,5.059029694E0,6.976828782E0
9.369171250E-1,4.281097412E-2,4.396806793E0,4.370461578E0,6.199570724E0
9.469241250E-1,-9.668394470E-1,4.315675507E0,4.011657715E0,5.971032676E0
9.569301250E-1,-1.607207794E0,3.814367981E0,3.073109436E0,5.155242147E0
9.669371250E-1,-2.453398132E0,3.139122162E0,2.017205200E0,4.465687759E0
9.769431250E-1,-3.327280884E0,1.929188232E0,2.280657349E0,4.471460976E0
9.869491250E-1,-3.644620972E0,9.401948547E-1,2.335593109E0,4.429697909E0
9.969561250E-1,-3.857328644E0,1.077908478E0,1.758842468E0,4.374288260E0
1.006962125E0,-3.502266998E0,1.988315277E0,2.151326294E0,4.565903699E0
1.016968125E0,-3.182681580E0,2.874472504E0,1.771266632E0,4.639982726E0
1.026975125E0,-3.109633484E0,2.994822235E0,1.192570038E0,4.478951207E0
1.036981125E0,-3.188818817E0,2.763104095E0,1.167122955E0,4.377840299E0
1.046988125E0,-2.913391571E0,3.050955505E0,1.915117493E0,4.632909988E0
1.056994125E0,-2.114353180E0,4.084556122E0,2.697690125E0,5.332130915E0
1.067000125E0,-1.240021362E0,4.952451324E0,2.828368378E0,5.836445389E0
1.077007125E0,-1.710493011E0,4.062102814E0,2.979404297E0,5.320086050E0
1.087013125E0,-1.616638184E0,3.705244904E0,4.457430725E0,6.017561589E0
1.097019125E0,-1.324745178E0,4.071682892E0,6.206393738E0,7.540084521E0
1.107026125E0,-1.464853821E0,3.926634521E0,6.958579559E0,8.123181942E0
1.117032125E0,-1.271755371E0,3.919898529E0,6.878196716E0,8.018263919E0
1.127039125E0,-9.743238831E-1,4.261488190E0,6.382427673E0,7.735953181E0
1.137045125E0,-5.528004456E-1,4.849914551E0,6.190526733E0,7.883519564E0
1.147051125E0,7.574249268E-2,4.997807007E0,6.264323273E0,8.014084968E0
1.157058125E0,4.290078735E-1,4.845872955E0,6.337521057E0,7.989412094E0
1.167064125E0,6.903643799E-1,4.757406921E0,5.905669098E0,7.614883524E0
1.177071125E0,1.075663147E0,4.604574738E0,5.212760010E0,7.037899306E0
1.187077125E0,1.723665619E0,4.193230133E0,4.897515564E0,6.673819058E0
1.197083125E0,2.334694977E0,3.415148163E0,5.019811249E0,6.504809189E0
1.207090125E0,2.409689026E0,2.764151917E0,5.815406799E0,6.875034055E0
1.217096125E0,2.235750732E0,2.160157928E0,6.943460999E0,7.607661549E0
1.227102125E0,2.260748749E0,1.545985107E0,7.729177094E0,8.200075207E0
1.237109125E0,2.458487549E0,8.816665649E-1,7.962392120E0,8.379808186E0
1.247115125E0,2.305505676E0,2.170486450E-2,7.383695526E0,7.735294897E0
1.257122125E0,2.022593994E0,-6.703060913E-1,6.345753937E0,6.693936790E0
1.267128125E0,1.617386627E0,-1.121767273E0,5.103187866E0,5.469627749E0
1.277134125E0,1.415157166E0,-1.345701599E0,3.866459656E0,4.331638589E0
1.287141125E0,1.722917175E0,-1.008303223E0,2.574795685E0,3.258019613E0
1.297147125E0,2.084565125E0,-6.152206421E-2,1.508113861E0,2.573636365E0
1.307154125E0,2.129920807E0,7.481442261E-1,8.684939575E-1,2.418793952E0
1.317160125E0,2.031725006E0,9.716294861E-1,4.242178345E-1,2.291709216E0
1.327166125E0,2.027533722E0,1.226998444E0,5.541476440E-1,2.433823696E0
1.337173125E0,2.176473999E0,1.662742310E0,1.992506561E0,3.387009515E0
1.347179125E0,2.652035065E0,1.939067688E0,4.438719635E0,5.522273579E0
1.357185125E0,3.316652985E0,1.967059479E0,7.073091431E0,8.055937711E0
1.367192125E0,3.991599426E0,2.193837891E0,9.072483673E0,1.015163783E1
1.377198125E0,4.557422791E0,3.045117645E0,9.997410278E0,1.140136203E1
1.387205125E0,5.685626678E0,4.535119171E0,1.138652161E1,1.351097816E1
1.397211125E0,7.229815521E0,5.922284546E0,1.368199814E1,1.656927155E1
1.407217125E0,7.860753479E0,6.525380402E0,1.562495773E1,1.866845839E1
1.417224125E0,6.767576752E0,6.244264984E0,1.692784836E1,1.927026181E1
1.427230125E0,4.689148865E0,5.509742432E0,1.740640320E1,1.885015255E1
1.437237125E0,2.917433167E0,5.202730865E0,1.705508377E1,1.806808532E1
1.447243125E0,2.200873260E0,5.436993713E0,1.585158646E1,1.690199802E1
1.457249125E0,2.922372894E0,6.744375000E0,1.462249237E1,1.636594454E1
1.467256125E0,4.235292664E0,8.570427704E0,1.554622147E1,1.825034073E1
1.477262125E0,5.253774719E0,9.249266052E0,1.852502701E1,2.136182803E1
1.487268125E0,5.993386688E0,9.389973450E0,2.170606201E1,2.439765180E1
1.497275125E0,5.436245270E0,9.154213715E0,2.394196243E1,2.620247997E1
1.507281125E0,4.604724426E0,9.202862549E0,2.446108292E1,2.653753462E1
1.517288125E0,4.296066284E0,9.741891632E0,2.310445404E1,2.543966263E1
1.527294125E0,4.768334198E0,1.076486435E1,2.098980148E1,2.406638905E1
1.537300125E0,6.341412964E0,1.203377563E1,1.971699829E1,2.395381590E1
1.547307125E0,7.072043610E0,1.323622513E1,1.904609344E1,2.424799233E1
1.557313125E0,6.350843353E0,1.367346588E1,1.881692001E1,2.411168512E1
1.567319125E0,5.493126984E0,1.309207489E1,1.983151016E1,2.438986807E1
1.577326125E0,5.653443604E0,1.182166672E1,2.171010361E1,2.535826940E1
1.587332125E0,5.823340302E0,1.095616653E1,2.330683319E1,2.640373744E1
1.597339125E0,5.682034149E0,1.056173676E1,2.358779892E1,2.646167140E1
1.607345125E0,5.376220093E0,9.749226379E0,2.189736420E1,2.456513212E1
1.617351125E0,5.031187592E0,9.319919128E0,1.921838516E1,2.194356556E1
1.627358125E0,4.632117462E0,9.255552979E0,1.624646530E1,1.926316194E1
1.637364125E0,3.981270905E0,9.552236023E0,1.371088806E1,1.717801451E1
1.647371125E0,2.560126190E0,9.702972565E0,1.275602371E1,1.623015908E1
1.657377125E0,1.056952057E0,8.737929382E0,1.302486465E1,1.571991275E1
1.667383125E0,1.293310547E-1,7.862699432E0,1.307905197E1,1.526107366E1
1.677390125E0,2.951861572E-1,8.008645935E0,1.293370422E1,1.521532943E1
1.687396125E0,1.050515442E0,8.200995941E0,1.285287231E1,1.528254703E1
1.697402125E0,1.388362885E0,8.340505829E0,1.254241791E1,1.512626312E1
1.707409125E0,1.499581604E0,8.643475800E0,1.182196609E1,1.472132131E1
1.717415125E0,2.047891388E0,8.888665924E0,1.125434647E1,1.448663368E1
1.727422125E0,2.904709625E0,8.595575409E0,1.098580490E1,1.424812844E1
1.737428125E0,3.579805756E0,8.300239563E0,1.062206131E1,1.394765832E1
1.747434125E0,3.797752533E0,8.076454926E0,9.909992065E0,1.333641598E1
1.757441125E0,4.373455353E0,8.171207886E0,9.527238007E0,1.329150157E1
1.767447125E0,5.073699188E0,8.111631775E0,9.934241638E0,1.379239466E1
1.777453125E0,5.681285706E0,7.960446167E0,1.059272232E1,1.441705506E1
1.787460125E0,5.983956299E0,7.231312408E0,1.127290787E1,1.466894897E1
1.797466125E0,5.539231110E0,5.358706512E0,1.160656403E1,1.393237759E1
1.807473125E0,4.198469238E0,3.050207062E0,1.121797211E1,1.236017011E1
1.817479125E0,3.210823059E0,1.300495605E0,1.022673340E1,1.079753442E1
1.827485125E0,2.854563904E0,-1.272354126E-2,8.907526703E0,9.353754804E0
1.837492125E0,2.578837280E0,-1.906136169E0,7.600444794E0,8.249273779E0
1.847498125E0,2.560575256E0,-3.862418060E0,6.652466125E0,8.107411700E0
1.857505125E0,2.134710846E0,-5.718558197E0,5.994584198E0,8.555345578E0
1.867511125E0,8.702902222E-1,-7.547155609E0,4.888534241E0,9.034087108E0
1.877517125E0,-1.272204437E0,-9.347012787E0,3.015329590E0,9.903401673E0
1.887524125E0,-3.772006073E0,-1.075393707E1,5.373825073E-1,1.140894265E1
1.897530125E0,-5.985153809E0,-1.128608047E1,-2.392474823E0,1.299698482E1
1.907536125E0,-7.498806152E0,-1.098191299E1,-5.389243011E0,1.434846497E1
1.917543125E0,-8.105494537E0,-1.030382309E1,-7.841443634E0,1.527599588E1
1.927549125E0,-7.955057373E0,-9.482032013E0,-8.867559814E0,1.522581643E1
1.937556125E0,-7.261100464E0,-8.791368256E0,-8.536747742E0,1.424386878E1
1.947562125E0,-6.008205872E0,-8.014633484E0,-7.518565063E0,1.252444443E1
1.957568125E0,-4.759203186E0,-7.129973145E0,-6.586004333E0,1.081027220E1
1.967575125E0,-4.116140442E0,-6.531218262E0,-6.158643036E0,9.875642165E0
1.977581125E0,-3.947441254E0,-6.180048523E0,-6.119574280E0,9.551150798E0
1.987588125E0,-4.001628571E0,-6.005062408E0,-5.956862640E0,9.357244160E0
1.997594125E0,-4.295317841E0,-5.908363495E0,-5.678291931E0,9.252108613E0
2.007600125E0,-4.645290070E0,-5.697452087E0,-5.382806396E0,9.111217527E0
2.017607125E0,-4.682712250E0,-5.154830475E0,-4.985083466E0,8.564527331E0
2.027613125E0,-4.421505432E0,-4.429588623E0,-4.473148041E0,7.692855065E0
2.037619125E0,-3.967649231E0,-3.524869995E0,-4.004023590E0,6.648244416E0
2.047625750E0,-3.050057373E0,-2.783611450E0,-3.485501862E0,5.403708533E0
2.057631750E0,-2.411485291E0,-2.110610962E0,-2.597698059E0,4.125284856E0
2.067638750E0,-2.282303925E0,-1.477277985E0,-2.063908081E0,3.413352899E0
2.077644750E0,-3.187321930E0,-1.153201904E0,-2.707569580E0,4.338182655E0
2.087650750E0,-4.389472046E0,-1.387913818E0,-4.507426758E0,6.442877120E0
2.097657750E0,-4.317471771E0,-1.288370819E0,-6.268963623E0,7.720127380E0
2.107663750E0,-2.408491516E0,-3.038681030E-1,-6.658603363E0,7.087324316E0
2.117670750E0,7.167095947E-1,1.184337158E0,-5.226231995E0,5.406461690E0
2.127676750E0,3.789819031E0,3.811074829E-1,-3.258873138E0,5.012806133E0
2.137682750E0,4.744084625E0,-7.325765991E-1,-6.825805664E-1,4.848600173E0
2.147689750E0,4.653373260E0,-9.580078125E-3,1.981279907E0,5.057612535E0
2.157695750E0,4.085603943E0,1.795216827E0,4.136498108E0,6.084864800E0
2.167701750E0,4.913681946E0,2.806364136E0,6.181695099E0,8.380531261E0
2.177708750E0,7.522007904E0,4.155059509E0,7.692802734E0,1.153361766E1
2.187714750E0,9.012757874E0,7.236401825E0,9.688901825E0,1.508211306E1
2.197721750E0,8.992100830E0,9.350755005E0,1.134685410E1,1.723501072E1
2.207727750E0,8.406967621E0,9.887987823E0,1.268776566E1,1.815017369E1
2.217733750E0,8.449778595E0,1.168949158E1,1.399514694E1,2.009744037E1
2.227740750E0,8.636290741E0,1.357107880E1,1.671184753E1,2.319580879E1
2.237746750E0,8.374335480E0,1.408046951E1,2.005020538E1,2.589208088E1
2.247753750E0,7.937244415E0,1.509476028E1,2.256362869E1,2.828372282E1
2.257759750E0,7.570806427E0,1.582239716E1,2.420301956E1,2.989065937E1
2.267765750E0,7.123237152E0,1.534054916E1,2.452679626E1,2.979323231E1
2.277772750E0,6.946454773E0,1.535252426E1,2.436573120E1,2.962502476E1
2.287778750E0,7.815846863E0,1.619422394E1,2.457140350E1,3.044822197E1
2.297784750E0,9.101972351E0,1.699820206E1,2.396232010E1,3.075674818E1
2.307791750E0,1.056592804E1,1.860436203E1,2.264640656E1,3.115478858E1
2.317797750E0,1.127036316E1,1.915835999E1,2.165696411E1,3.103365814E1
2.327804750E0,1.149594406E1,1.758138931E1,2.064117645E1,2.945029958E1
2.337810750E0,1.131661697E1,1.619332581E1,2.019435562E1,2.825069237E1
2.347816750E0,1.101484451E1,1.505614059E1,2.035018158E1,2.760695672E1
2.357823750E0,1.115540222E1,1.467443436E1,2.065614532E1,2.768498442E1
2.367829750E0,1.151525391E1,1.497426086E1,2.210363525E1,2.907576744E1
2.377836750E0,1.267459305E1,1.478595245E1,2.402399185E1,3.092607126E1
2.387842750E0,1.350132385E1,1.420785461E1,2.503304352E1,3.179311476E1
2.397848750E0,1.424018738E1,1.309536804E1,2.544378937E1,3.196338559E1
2.407855750E0,1.477292953E1,1.121797211E1,2.514800446E1,3.124907156E1
2.417861750E0,1.429182999E1,9.950408020E0,2.353660538E1,2.927864097E1
2.427867750E0,1.326721069E1,1.008123596E1,2.221829681E1,2.777234076E1
2.437874750E0,1.166015259E1,1.056622742E1,2.226694565E1,2.726575120E1
2.447880750E0,9.714797974E0,1.068972061E1,2.284833664E1,2.703135057E1
2.457887750E0,7.473508759E0,1.022104523E1,2.266287231E1,2.596014022E1
2.467893750E0,5.073549500E0,9.922565918E0,2.132585266E1,2.406221541E1
2.477899750E0,2.318977661E0,1.032103729E1,1.874282410E1,2.152196374E1
2.487906750E0,7.828720093E-2,1.145912064E1,1.584155731E1,1.955179052E1
2.497912750E0,3.656895447E-1,1.220621704E1,1.472173599E1,1.912733578E1
2.507918750E0,-3.239263916E-1,1.342588074E1,1.539668243E1,2.043078637E1
2.517925750E0,-1.682351532E0,1.319910233E1,1.574575653E1,2.061493288E1
2.527931750E0,-3.047662354E0,1.134296219E1,1.614273102E1,1.996343662E1
2.537938750E0,-3.839964752E0,8.795559540E0,1.651710251E1,1.910292837E1
2.547944750E0,-4.041595459E0,5.307063904E0,1.570803497E1,1.706580745E1
2.557950750E0,-3.178490295E0,1.689087524E0,1.346330292E1,1.393615236E1
2.567957750E0,-1.838626556E0,-1.263672180E0,1.008872040E1,1.033245829E1
2.577963750E0,-5.228627014E-1,-3.231031036E0,6.083349609E0,6.907972889E0
2.587970750E0,8.249345398E-1,-4.653822327E0,1.846260681E0,5.074175573E0
2.597976750E0,1.898651733E0,-5.351521454E0,-2.617906036E0,6.252766771E0
2.607982750E0,2.214345245E0,-5.972430267E0,-6.306385803E0,8.963467525E0
2.617989750E0,1.941612396E0,-6.523733826E0,-8.843908997E0,1.115991434E1
2.627995750E0,1.550475769E0,-6.532266083E0,-9.879455566E0,1.194479458E1
2.638001750E0,8.497828674E-1,-6.483617249E0,-9.678273926E0,1.168025726E1
2.648008750E0,-8.337661743E-2,-6.447841644E0,-9.220226440E0,1.125140832E1
2.658014750E0,-9.548643494E-1,-6.587950287E0,-8.717571716E0,1.096854191E1
2.668021750E0,-1.959724731E0,-6.863676910E0,-7.928712158E0,1.066841405E1
2.678027750E0,-2.971919861E0,-6.956783295E0,-7.001839600E0,1.030800171E1
2.688033750E0,-3.565285950E0,-6.992409210E0,-5.903274078E0,9.821084223E0
2.698040750E0,-3.879183197E0,-6.896608429E0,-4.903952179E0,9.309136215E0
2.708046750E0,-3.800147552E0,-6.362968140E0,-4.068988495E0,8.454889256E0
2.718053750E0,-3.620371399E0,-5.637127533E0,-3.542982330E0,7.578721507E0
2.728059750E0,-3.552712097E0,-5.040318604E0,-3.332220612E0,7.009298758E0
2.738065750E0,-3.497776337E0,-4.482129364E0,-3.282224579E0,6.564824531E0
2.748072750E0,-3.248544617E0,-3.864513702E0,-3.361858978E0,6.065443436E0
2.758078750E0,-2.828667755E0,-3.253334656E0,-3.585493927E0,5.607255510E0
2.768085750E0,-2.324216766E0,-2.748584290E0,-3.578308868E0,5.075528892E0
2.778091750E0,-1.722767487E0,-2.468067627E0,-3.363206177E0,4.513362539E0
2.788097750E0,-1.220861206E0,-2.313738556E0,-3.048859863E0,4.017391524E0
2.798104750E0,-1.096469879E0,-2.135608978E0,-2.723286896E0,3.630339298E0
2.808110750E0,-1.100062408E0,-2.106419678E0,-2.364033966E0,3.351984152E0
2.818116750E0,-1.077758789E0,-2.369422760E0,-2.023791504E0,3.297189754E0
2.828123750E0,-1.304088135E0,-2.552342377E0,-1.661694489E0,3.313053885E0
2.838129750E0,-1.176852722E0,-2.603984985E0,-1.399589539E0,3.181913105E0
2.848136750E0,-1.072369995E0,-2.402354279E0,-1.318607941E0,2.942789559E0
2.858142750E0,-1.097368011E0,-1.978884888E0,-1.464554443E0,2.695388964E0
2.868148750E0,-9.517208862E-1,-1.264420624E0,-1.604663086E0,2.253769238E0
2.878155750E0,-5.581892395E-1,-5.062472534E-1,-1.865121460E0,2.011601245E0
2.888161750E0,1.600172424E-1,3.890409851E-1,-1.672472076E0,1.724564076E0
2.898167750E0,3.589535522E-1,1.631307678E0,-1.226549377E0,2.072302046E0
2.908174750E0,1.936972046E-1,2.736758881E0,-8.936416626E-1,2.885474519E0
2.918180750E0,2.781216431E-1,3.511847076E0,-8.744815063E-1,3.629757491E0
2.928187750E0,3.085084534E-1,3.955374756E0,-1.518143005E0,4.247931863E0
2.938193750E0,-7.304809570E-2,3.623215485E0,-2.837349701E0,4.602562308E0
2.948199750E0,-1.524280243E0,3.867806854E0,-4.678520966E0,6.258747362E0
2.958206750E0,-2.307152252E0,5.191055145E0,-6.904242554E0,8.940837225E0
2.968212750E0,-1.211430817E0,7.219487000E0,-7.986192627E0,1.083364342E1
2.978219750E0,1.336271210E0,9.515711975E0,-5.671406250E0,1.115792292E1
2.988225750E0,4.209097137E0,1.010563522E1,3.832031250E-2,1.094722935E1
2.998231750E0,7.158713379E0,8.520880737E0,7.055428162E0,1.317693638E1
3.008238750E0,9.551337891E0,6.731651459E0,1.372256378E1,1.802364956E1
3.018244750E0,1.016745667E1,6.607110443E0,2.011157776E1,2.348417858E1
3.028250750E0,9.223369904E0,7.891140289E0,2.514890259E1,2.792504161E1
3.038257750E0,6.863078156E0,8.227041779E0,2.728990036E1,2.931765202E1
3.048263500E0,4.164489899E0,7.405999146E0,2.563179840E1,2.700334958E1
3.058270500E0,1.912872162E0,6.571933594E0,2.026411057E1,2.138886552E1
3.068276500E0,1.809736633E0,6.661896515E0,1.439451645E1,1.596427623E1
3.078282500E0,3.374582520E0,8.238717499E0,1.059137512E1,1.383623866E1
3.088289500E0,5.071304169E0,8.905131683E0,1.061322968E1,1.475330947E1
3.098295500E0,6.549031219E0,8.169561310E0,1.410950912E1,1.757013915E1
3.108301500E0,9.288783875E0,9.646988983E0,1.903292084E1,2.327225769E1
3.118308500E0,1.226639191E1,1.089015381E1,2.478441055E1,2.972081471E1
3.128314500E0,1.365265915E1,9.179361420E0,2.944227448E1,3.372689289E1
3.138321500E0,1.271845184E1,6.446494446E0,2.960378860E1,3.285879803E1
3.148327500E0,9.464967499E0,5.250780945E0,2.535397614E1,2.756774231E1
3.158333500E0,6.048023071E0,5.297932892E0,1.891391830E1,2.055195810E1
3.168340500E0,4.317621460E0,5.379513245E0,1.283595749E1,1.457198760E1
3.178346500E0,4.332590332E0,5.616021423E0,8.897347870E0,1.137865698E1
3.188352500E0,4.274960175E0,7.002887421E0,7.163353729E0,1.089171031E1
3.198359500E0,3.061882782E0,7.978708191E0,8.466992798E0,1.203016532E1
3.208365500E0,2.917283478E0,7.868986359E0,1.153995255E1,1.426891706E1
3.218372500E0,4.241429901E0,7.335795135E0,1.442131073E1,1.672656035E1
3.228378500E0,6.052064667E0,6.802454224E0,1.709220657E1,1.936606299E1
3.238384500E0,7.632328491E0,5.595813446E0,1.817191132E1,2.048862922E1
3.248391500E0,8.403375092E0,4.553830261E0,1.679342789E1,1.932286995E1
3.258397500E0,7.088808746E0,4.909191284E0,1.406924286E1,1.650136246E1
3.268403500E0,4.668192444E0,4.965773621E0,1.133023865E1,1.322214945E1
3.278410500E0,2.039658508E0,4.996759186E0,9.199868774E0,1.066608619E1
3.288416500E0,6.063890076E-1,5.073100433E0,7.946674805E0,9.447417429E0
3.298423500E0,1.239422607E-1,5.212760010E0,7.633226624E0,9.244153682E0
3.308429500E0,1.423539734E-1,4.951852570E0,8.156089325E0,9.542688384E0
3.318435500E0,1.301393738E0,5.592969360E0,9.038055267E0,1.070800518E1
3.328442500E0,2.919678497E0,7.113208008E0,1.058299255E1,1.308136010E1
3.338448500E0,3.743864594E0,7.769593048E0,1.194201645E1,1.473074523E1
3.348454500E0,3.715573425E0,7.848628693E0,1.216595078E1,1.494713406E1
3.358461500E0,3.346890106E0,7.893684998E0,1.305360489E1,1.561757141E1
3.368467500E0,3.769311676E0,8.044122162E0,1.528351776E1,1.767771272E1
3.378474500E0,5.372028809E0,8.678802338E0,1.848416199E1,2.111503133E1
3.388480500E0,6.743626556E0,9.378447418E0,2.336985214E1,2.606878908E1
3.398486500E0,7.873926086E0,9.304201813E0,2.769600586E1,3.025947164E1
3.408493500E0,9.208550720E0,9.728719025E0,3.079710709E1,3.358432946E1
3.418499500E0,1.031011002E1,1.025801834E1,3.202620117E1,3.517389473E1
3.428505500E0,1.043824356E1,1.072355026E1,3.192082031E1,3.525464832E1
3.438512500E0,9.427096252E0,1.016820511E1,3.106699585E1,3.402088726E1
3.448518500E0,7.086862793E0,8.525820465E0,2.963073257E1,3.163690174E1
3.458525500E0,5.635181580E0,6.856940918E0,2.586651031E1,2.734683283E1
3.468531500E0,6.219117279E0,6.195765839E0,2.032742889E1,2.214202564E1
3.478537500E0,8.097561035E0,6.266418915E0,1.490540405E1,1.808340595E1
3.488544500E0,8.078550568E0,5.842350769E0,9.935439148E0,1.407511964E1
3.498550500E0,6.268514557E0,6.196813660E0,5.643863525E0,1.046651660E1
3.508556500E0,-1.079255676E0,7.330256653E0,5.453160095E-1,7.429321972E0
3.518563500E0,-1.072863968E1,8.624615021E0,-4.555177460E0,1.449956328E1
3.528569500E0,-4.517605591E0,4.918022919E0,-4.174519043E0,7.875425001E0
3.538576500E0,-9.352551270E-1,4.031416626E0,6.113287354E-1,4.183389175E0
3.548582500E0,5.733078003E-1,4.710105286E0,4.099225616E0,6.270360778E0
3.558588500E0,2.713257751E0,4.536316681E0,4.446503448E0,6.907338820E0
3.568595500E0,3.490142212E0,4.158053284E0,3.684288483E0,6.560829322E0
3.578601500E0,3.606600037E0,3.592828674E0,2.340083771E0,5.602854073E0
3.588607500E0,3.238964539E0,3.188369751E0,2.353106689E-1,4.551039888E0
3.598614500E0,2.600242767E0,4.054768066E0,-1.602118378E0,5.076336259E0
3.608620500E0,2.762954407E0,4.289479980E0,-3.626508636E0,6.259801950E0
3.618627500E0,3.245700531E0,3.545826416E0,-5.211263123E0,7.089761649E0
3.628633500E0,3.156186676E0,3.333118744E0,-5.204527130E0,6.939617968E0
3.638639500E0,2.797682190E0,3.137924652E0,-4.373455353E0,6.066358750E0
3.648646500E0,2.051483917E0,2.564317474E0,-3.551514587E0,4.837103083E0
3.658652500E0,1.229842529E0,1.941612396E0,-2.687810669E0,3.536480954E0
3.668658500E0,6.863227844E-1,1.353635101E0,-1.731449432E0,2.302451756E0
3.678665500E0,1.475930786E-1,8.551716614E-1,-3.608995056E-1,9.398674058E-1
3.688671500E0,-8.229885864E-1,4.887336731E-1,1.345851288E0,1.651510371E0
3.698678500E0,-1.223555603E0,3.412902832E-1,2.777623901E0,3.054302197E0
3.708684500E0,1.556762695E-2,9.494755554E-1,3.178789673E0,3.317597017E0
3.718690500E0,2.449057159E0,8.346643066E-1,2.400857391E0,3.529682944E0
3.728697500E0,3.527115326E0,-9.789642334E-2,9.051676941E-1,3.642726285E0
3.738703500E0,1.472937012E0,-8.125103760E-1,-6.794371033E-1,1.814208182E0
3.748710500E0,-1.498234406E0,-1.812131653E0,-1.780247955E0,2.949205019E0
3.758716500E0,-2.722388763E0,-3.179238739E0,-2.040556641E0,4.656482679E0
3.768722500E0,-3.012335815E0,-3.956123199E0,-1.309177551E0,5.141889117E0
3.778729500E0,-3.000510406E0,-3.700604553E0,-2.019300842E-1,4.768470669E0
3.788735500E0,-3.187621307E0,-3.010689240E0,3.869453430E-1,4.401693537E0
3.798741500E0,-2.804118805E0,-2.903212738E0,5.179229736E-1,4.069394388E0
3.808748500E0,-1.811233521E0,-3.152594147E0,5.538482666E-1,3.677793445E0
3.818754500E0,-1.060694275E0,-2.934497681E0,4.604425049E-1,3.154101502E0
3.828761500E0,-4.379891968E-1,-2.447111206E0,1.666035461E-1,2.491574709E0
3.838767500E0,-2.372566223E-1,-1.785487061E0,-7.173083496E-1,1.938758886E0
3.848773500E0,-5.080435181E-1,-1.450483704E0,-1.297352142E0,2.011251792E0
3.858780500E0,-6.761439514E-1,-1.362317047E0,-1.302441559E0,2.002356710E0
3.868786500E0,-7.833210754E-1,-1.251248016E0,-9.651928711E-1,1.763749071E0
3.878792500E0,-9.988728333E-1,-1.106049957E0,-9.620494080E-1,1.773874998E0
3.888799500E0,-1.520837402E0,-7.128176880E-1,-9.859996033E-1,1.947626935E0
3.898805500E0,-1.822759552E0,-2.429447937E-1,-1.247356110E0,2.222019762E0
3.908812500E0,-1.750160522E0,5.439688110E-1,-1.780098267E0,2.554939091E0
3.918818500E0,-1.974843292E0,1.488504639E0,-2.375559998E0,3.429130705E0
3.928824500E0,-2.941982117E0,2.186353455E0,-3.235821075E0,4.889369922E0
3.938831500E0,-3.753444672E0,2.762205963E0,-4.342020721E0,6.369558276E0
3.948837500E0,-3.426225128E0,3.986659698E0,-5.450465698E0,7.572321342E0
3.958843500E0,-2.395618286E0,5.762566681E0,-6.089037781E0,8.719090711E0
3.968850500E0,-4.881349182E-1,7.541317749E0,-5.626499634E0,9.421637184E0
3.978856500E0,2.706970825E0,9.252858582E0,-3.324436798E0,1.019779207E1
3.988863500E0,5.340743866E0,1.088611221E1,8.801696777E-1,1.215753605E1
3.998869500E0,7.968529358E0,1.303010376E1,8.689579926E0,1.757241769E1
4.008875500E0,9.180109863E0,1.597118774E1,1.837533829E1,2.601934496E1
4.018882500E0,1.128413452E1,1.781280807E1,1.940834015E1,2.865853260E1
4.028888500E0,1.293579987E1,1.938753342E1,1.907513306E1,3.011763721E1
4.038895500E0,1.468416412E1,1.688578583E1,1.629900604E1,2.768414776E1
4.048901500E0,1.489133331E1,1.720237747E1,1.566776871E1,2.762521628E1
4.058907500E0,1.249287094E1,1.920446411E1,1.226384720E1,2.598625048E1
4.068914500E0,8.927884369E0,1.921673859E1,8.735983429E0,2.291958917E1
4.078920500E0,7.476203156E0,1.830333801E1,6.556515656E0,2.083011506E1
4.088926500E0,6.732549591E0,1.752121445E1,6.870562592E0,1.998811672E1
4.098933500E0,6.234984283E0,1.643402527E1,8.139024811E0,1.936997523E1
4.108939500E0,5.544021149E0,1.565549423E1,9.513316956E0,1.913985030E1
4.118945500E0,4.327800293E0,1.450079544E1,9.691147156E0,1.797000993E1
4.128952500E0,1.561552734E0,1.336361023E1,1.053613998E1,1.708902487E1
4.138958500E0,-2.639012146E-1,1.272623566E1,1.155866364E1,1.719387748E1
4.148965500E0,6.399192810E-1,1.219005066E1,1.095317276E1,1.640057393E1
4.158971500E0,2.257156219E0,1.139789795E1,8.832382965E0,1.459513003E1
4.168977500E0,3.261717224E0,1.178918427E1,7.225474548E0,1.420672895E1
4.178984500E0,3.864064636E0,1.331406326E1,7.282955017E0,1.566003544E1
4.188990500E0,2.587968292E0,1.430844543E1,8.875792694E0,1.703551838E1
4.198997500E0,1.740730133E0,1.567824692E1,1.072340057E1,1.907429914E1
4.209003500E0,2.856659546E0,1.784813461E1,1.252744904E1,2.199212114E1
4.219009500E0,5.568270721E0,1.980860779E1,1.445963104E1,2.514890676E1
4.229016500E0,8.193212128E0,2.161894318E1,1.646321457E1,2.838212224E1
4.239022500E0,9.878108368E0,2.313274521E1,1.801473816E1,3.093916154E1
4.249028500E0,1.058838135E1,2.333617218E1,1.851799164E1,3.161655841E1
4.259035500E0,1.115944382E1,2.278606613E1,1.716330872E1,3.063196308E1
4.269041500E0,1.207299408E1,2.223640915E1,1.391551254E1,2.887657471E1
4.279047500E0,1.176568314E1,2.114592682E1,9.728719025E0,2.608120961E1
4.289054500E0,1.004067032E1,1.978256195E1,6.107748871E0,2.301020239E1
4.299060500E0,6.946604462E0,1.829405731E1,2.565964050E0,1.973605883E1
4.309067500E0,1.848655701E-1,1.729308884E1,-1.754052429E0,1.738280175E1
4.319073500E0,-9.722282410E-1,1.491273880E1,4.314028931E-1,1.495062255E1
4.329079500E0,1.072519684E0,1.208960953E1,1.994153137E0,1.229982129E1
4.339086500E0,1.725162506E0,1.094149704E1,4.111949158E0,1.181527270E1
4.349092500E0,1.945055237E0,9.445657654E0,5.671855316E0,1.118810221E1
4.359098500E0,2.587369537E0,7.589068451E0,5.525609436E0,9.737597276E0
4.369105500E0,2.347418518E0,5.959257660E0,5.170398102E0,8.231411913E0
4.379111500E0,2.270029449E0,4.687202911E0,4.367168427E0,6.796695145E0
4.389118500E0,2.649939423E0,3.252436523E0,3.295846252E0,5.335084329E0
4.399124500E0,3.040776672E0,1.740580444E0,2.572101288E0,4.346452357E0
4.409130500E0,3.168461151E0,4.478686523E-1,2.024090881E0,3.786380368E0
4.419137500E0,2.946622467E0,-4.733157349E-1,1.457519073E0,3.321290953E0
4.429143500E0,2.469863892E0,-1.250050507E0,1.004111938E0,2.944672256E0
4.439150500E0,1.757046204E0,-1.706002350E0,5.007087708E-1,2.499672909E0
4.449156500E0,9.568103027E-1,-2.178270264E0,-2.035766602E-2,2.379235535E0
4.459162500E0,1.079255676E-1,-2.933000793E0,-3.486250305E-1,2.955618547E0
4.469169500E0,-8.083190918E-1,-3.536845093E0,-3.534150696E-1,3.645209895E0
4.479175500E0,-1.655856628E0,-3.902534637E0,-2.415975952E-1,4.246175593E0
4.489181500E0,-2.051184540E0,-4.004772034E0,-3.817062378E-1,4.515667914E0
4.499188500E0,-2.206561432E0,-3.933819580E0,-7.111711121E-1,4.566137776E0
4.509194500E0,-2.284249878E0,-3.806883545E0,-1.220262451E0,4.604258928E0
4.519201500E0,-2.055375824E0,-3.495980072E0,-1.705702972E0,4.399530551E0
4.529207500E0,-2.206411743E0,-3.250640259E0,-2.096240845E0,4.452992314E0
4.539213500E0,-2.287543030E0,-3.136577454E0,-2.430795135E0,4.580364202E0
4.549220500E0,-2.204316101E0,-3.121159515E0,-2.638862457E0,4.643731394E0
4.559226500E0,-2.235601044E0,-3.160078583E0,-2.668800201E0,4.701755331E0
4.569232500E0,-2.275867310E0,-3.291654968E0,-2.302362213E0,4.616864326E0
4.579239500E0,-2.324216766E0,-3.537593536E0,-1.614991608E0,4.530424870E0
4.589245500E0,-2.629881134E0,-4.056264954E0,-3.498225403E-1,4.846848044E0
4.599252500E0,-2.902613983E0,-4.545447693E0,7.529342651E-1,5.445472677E0
4.609258500E0,-2.588866425E0,-4.618196411E0,6.466552734E-1,5.333678890E0
4.619264500E0,-2.559377747E0,-4.746030579E0,6.774911499E-1,5.434539075E0
4.629271500E0,-2.380050659E0,-4.637057190E0,4.137396240E-1,5.228586903E0
4.639277500E0,-1.999541931E0,-4.231849823E0,2.095642090E-3,4.680462077E0
4.649284500E0,-1.617835693E0,-3.803141327E0,-5.450166321E-1,4.168731151E0
4.659290500E0,-1.009650421E0,-3.428320770E0,-1.157842255E0,3.756777337E0
4.669296500E0,-6.982978821E-1,-3.337310028E0,-1.488205261E0,3.720216802E0
4.679303500E0,-1.071471863E0,-3.096161499E0,-1.488654327E0,3.598660819E0
4.689309500E0,-1.140628052E0,-2.552342377E0,-1.335073700E0,3.098048700E0
4.699315500E0,-9.379495239E-1,-2.133812714E0,-1.532064056E0,2.789287773E0
4.709322500E0,-1.168021088E0,-2.001936951E0,-2.098186798E0,3.126405709E0
4.719328500E0,-1.302441559E0,-1.998194733E0,-2.512375488E0,3.464270024E0
4.729335500E0,-5.960604858E-1,-1.697919159E0,-2.458337860E0,3.046578837E0
4.739341500E0,6.825805664E-2,-6.915618896E-1,-2.756817169E0,2.843054328E0
4.749347500E0,1.385818176E0,8.246351624E-1,-3.476819916E0,3.832595973E0
4.759354500E0,3.778143311E0,2.684517517E0,-3.604205017E0,5.871226020E0
4.769360500E0,5.087320862E0,5.466632080E0,-2.204016724E0,7.786050961E0
4.779366500E0,5.437742157E0,9.240584106E0,4.195774841E-1,1.073002701E1
4.789373500E0,6.498137054E0,1.260289215E1,7.623496857E0,1.609895587E1
4.799379500E0,1.033316208E1,1.479179031E1,1.306572968E1,2.227744580E1
4.809386500E0,1.441277847E1,1.622401199E1,1.820469315E1,2.832591748E1
4.819392500E0,1.573842178E1,1.784424271E1,2.227532822E1,3.259302326E1
4.829398500E0,1.498713409E1,1.820723785E1,2.268757095E1,3.272374634E1
4.839405500E0,1.333007996E1,1.910372360E1,2.073622879E1,3.118708822E1
4.849411500E0,1.118563934E1,2.124666733E1,1.884760620E1,3.052493505E1
4.859418500E0,8.929980011E0,2.206935654E1,1.800620590E1,2.985003337E1
4.869424500E0,7.766150208E0,2.259685959E1,1.785217621E1,2.982668851E1
4.879430500E0,7.379354553E0,2.348825592E1,1.923335403E1,3.124219818E1
4.889437500E0,9.276509399E0,2.423295731E1,2.082499420E1,3.327116214E1
4.899443500E0,1.163769928E1,2.489922180E1,2.088262436E1,3.451798504E1
4.909449500E0,1.282712585E1,2.540561874E1,2.004900787E1,3.481297658E1
4.919456500E0,1.316063232E1,2.545127380E1,1.908276718E1,3.442559491E1
4.929462500E0,1.270557861E1,2.618100632E1,1.810844330E1,3.427524673E1
4.939469500E0,1.275916718E1,2.792981964E1,1.725910950E1,3.522425347E1
4.949475500E0,1.329430435E1,2.987667114E1,1.618329666E1,3.648634125E1
4.959481500E0,1.404514297E1,3.112372787E1,1.549577637E1,3.749762077E1
4.969488500E0,1.488115448E1,3.102613083E1,1.795606018E1,3.881352406E1
4.979494500E0,1.547257462E1,2.858545624E1,2.372760818E1,4.024336298E1
4.989500500E0,1.540371780E1,2.626647858E1,2.766741531E1,4.114229319E1
4.999507500E0,1.332214645E1,2.491074783E1,2.684173233E1,3.896798094E1
5.009513500E0,1.082039886E1,2.320773926E1,2.345337845E1,3.472378369E1
5.019520500E0,8.529862061E0,2.081122284E1,1.908456345E1,2.949722198E1
5.029526500E0,5.807024231E0,1.784124893E1,1.436158493E1,2.362809378E1
5.039532500E0,3.115621033E0,1.468880447E1,1.087264023E1,1.853867247E1
5.049539375E0,1.424886932E0,1.188932602E1,8.945397949E0,1.494678964E1
5.059545375E0,8.267308044E-1,9.564959564E0,7.646548920E0,1.227361584E1
5.069551375E0,9.750723267E-1,7.227121124E0,6.761439514E0,9.944803170E0
5.079558375E0,1.874402161E0,4.939578094E0,6.875502319E0,8.670948469E0
5.089564375E0,2.466121674E0,2.788401489E0,6.802454224E0,7.754374407E0
5.099571375E0,2.027384033E0,4.114942932E-1,5.785019989E0,6.143783024E0
5.109577375E0,7.533833313E-1,-2.036814423E0,3.889212341E0,4.454455306E0
5.119583375E0,-1.325792999E0,-4.231101379E0,1.457818451E0,4.667459758E0
5.129590375E0,-3.379222870E0,-5.861810303E0,-1.193168793E0,6.870488993E0
5.139596375E0,-4.204307098E0,-6.817872162E0,-2.903512115E0,8.519974272E0
5.149602375E0,-4.101620636E0,-7.072043610E0,-3.021017761E0,8.715712304E0
5.159609375E0,-3.413501587E0,-6.963818665E0,-2.117197266E0,8.039234276E0
5.169615375E0,-2.852019196E0,-6.909781036E0,-1.147214355E0,7.562750045E0
5.179622375E0,-2.614014130E0,-6.856791229E0,-7.837701416E-1,7.379901860E0
5.189628375E0,-2.474953308E0,-6.680757294E0,-6.779402161E-1,7.156641309E0
5.199634375E0,-2.208657074E0,-6.346652069E0,-5.295986938E-1,6.740818447E0
5.209641375E0,-1.863325195E0,-6.016588440E0,-5.354365540E-1,6.321234812E0
5.219647375E0,-1.670975189E0,-5.685177612E0,-7.003935242E-1,5.966904864E0
5.229654375E0,-1.765877838E0,-5.284161530E0,-1.010398865E0,5.662295778E0
5.239660375E0,-1.759141846E0,-4.958887939E0,-1.272503815E0,5.413355298E0
5.249666375E0,-1.784588928E0,-4.678071899E0,-1.478026428E0,5.220505384E0
5.259673375E0,-1.916614380E0,-4.443509674E0,-1.717079315E0,5.134836928E0
5.269679375E0,-2.071991272E0,-4.289629669E0,-2.101929016E0,5.206935386E0
5.279685375E0,-2.150577850E0,-4.189487915E0,-2.399061127E0,5.285100602E0
5.289692375E0,-2.032024384E0,-4.093836823E0,-2.439028015E0,5.180490390E0
5.299698375E0,-1.830393677E0,-3.884122925E0,-2.301314392E0,4.871632153E0
5.309705375E0,-1.619631958E0,-3.575315094E0,-2.066901855E0,4.436008226E0
5.319711375E0,-1.353186035E0,-3.328927460E0,-1.662442932E0,3.959366992E0
5.329717375E0,-9.984237671E-1,-3.027753754E0,-1.131197662E0,3.382861357E0
5.339724375E0,-5.550457764E-1,-2.711311798E0,-7.637118530E-1,2.870982981E0
5.349730375E0,-2.529739380E-1,-2.407593384E0,-4.153862000E-1,2.456226254E0
5.359736375E0,-1.592687988E-1,-2.147434387E0,-2.567161560E-1,2.168581145E0
5.369743375E0,2.694396973E-3,-1.905387726E0,-2.936892700E-1,1.927890825E0
5.379749375E0,1.704954529E-1,-1.896855469E0,-5.572911072E-1,1.984364570E0
5.389756375E0,7.080276489E-2,-2.004481659E0,-5.625302124E-1,2.083122654E0
5.399762375E0,6.466552734E-2,-1.878294067E0,-2.606080627E-1,1.897389469E0
5.409768375E0,3.290158081E-1,-1.838027802E0,-5.837860107E-3,1.867252442E0
5.419775375E0,4.935237122E-1,-1.831591187E0,2.535726929E-1,1.913789706E0
5.429781375E0,5.454656982E-1,-1.857786713E0,6.005511475E-1,2.027206447E0
5.439787375E0,4.567002869E-1,-1.536255341E0,4.345463562E-1,1.660568023E0
5.449794375E0,5.140310669E-1,-8.370593262E-1,-4.670288086E-1,1.087663625E0
5.459800375E0,7.625143433E-1,-2.110610962E-1,-1.160985718E0,1.404942257E0
5.469807375E0,1.110390930E0,5.785469055E-1,-1.541195068E0,1.985690504E0
5.479813375E0,2.071093140E0,2.409239960E0,-2.652783508E0,4.138976240E0
5.489819375E0,3.065774689E0,4.466262360E0,-5.109474792E0,7.446690981E0
5.499826375E0,3.511098633E0,6.480623474E0,-7.426207123E0,1.046302282E1
5.509832375E0,2.162852325E0,8.678952026E0,-8.884624329E0,1.260708880E1
5.519838375E0,2.225272522E0,1.004575974E1,-7.546257477E0,1.275990315E1
5.529845375E0,5.140011292E0,1.053733749E1,-9.695338440E-1,1.176414865E1
5.539851375E0,9.649384003E0,1.110076584E1,7.719147949E0,1.661092589E1
5.549858375E0,1.345941101E1,1.166060165E1,1.409843216E1,2.271323766E1
5.559864375E0,1.452085373E1,1.239257950E1,1.686497910E1,2.547270578E1
5.569870375E0,1.286559586E1,1.419019135E1,1.693772781E1,2.556895991E1
5.579877375E0,1.176044403E1,1.641142227E1,1.778870819E1,2.690875255E1
5.589883375E0,1.107786346E1,1.669358551E1,1.995066238E1,2.827408329E1
5.599890375E0,8.557255096E0,1.625020752E1,1.986129822E1,2.705119269E1
5.609896375E0,6.508315887E0,1.616548370E1,1.713606537E1,2.444024909E1
5.619902375E0,6.283333740E0,1.676947769E1,1.394335464E1,2.269609666E1
5.629909375E0,7.831863556E0,1.838237366E1,1.370070923E1,2.422724048E1
5.639915375E0,1.097188385E1,2.017070480E1,1.734892273E1,2.877889309E1
5.649921375E0,1.510778320E1,2.115625534E1,2.291719345E1,3.465587986E1
5.659928375E0,1.855077347E1,2.112781448E1,2.706087662E1,3.902315703E1
5.669934375E0,2.083951401E1,2.188943069E1,2.888573181E1,4.180691357E1
5.679941375E0,2.100297409E1,2.281555481E1,2.523512329E1,3.998106939E1
5.689947375E0,2.084430405E1,2.383448593E1,1.950429062E1,3.718850741E1
5.699953375E0,2.114368149E1,2.446093323E1,1.582209778E1,3.599626785E1
5.709960375E0,2.034943314E1,2.407548477E1,1.508967087E1,3.494891361E1
5.719966375E0,1.891122391E1,2.192954727E1,1.639989624E1,3.327906294E1
5.729972375E0,1.700778214E1,1.915716248E1,1.894505356E1,3.186183582E1
5.739979375E0,1.604258926E1,1.705074280E1,2.174587921E1,3.195271135E1
5.749985375E0,1.609857285E1,1.614332977E1,2.516970932E1,3.396005611E1
5.759991375E0,1.683324509E1,1.646486115E1,2.666824310E1,3.557590453E1
5.769998375E0,1.592238922E1,1.728141312E1,2.338811417E1,3.315378715E1
5.780004375E0,1.383108810E1,1.757270737E1,1.719908432E1,2.821183340E1
5.790011375E0,1.193093948E1,1.727198273E1,1.162692169E1,2.399695840E1
5.800017375E0,9.657916260E0,1.624990814E1,7.968080292E0,2.051402361E1
5.810023375E0,6.645879822E0,1.483939133E1,5.313201141E0,1.710571132E1
5.820030375E0,3.879781952E0,1.264779877E1,2.672093353E0,1.349665160E1
5.830036375E0,2.370021515E0,1.050635193E1,6.354286194E-1,1.078907792E1
5.840042375E0,5.707630920E-1,8.265811157E0,-8.973838806E-1,8.333948789E0
5.850049375E0,-1.019829254E0,5.455704803E0,-1.328786774E0,5.707051857E0
5.860055375E0,-1.800904999E0,2.950065308E0,-6.087840271E-1,3.509524487E0
5.870062375E0,-1.895957336E0,7.702981567E-1,3.817062378E-2,2.046819598E0
5.880068375E0,-1.426383820E0,-8.815168762E-1,3.951782227E-1,1.722732896E0
5.890074375E0,-1.062041473E0,-2.627486115E0,4.050576782E-1,2.862811048E0
5.900081375E0,-8.792715454E-1,-3.802243195E0,-1.137634277E-2,3.902601848E0
5.910087375E0,-1.064137115E0,-4.219126282E0,-7.996371460E-1,4.424119567E0
5.920093375E0,-1.608554993E0,-4.590354309E0,-1.595083008E0,5.118895550E0
5.930100375E0,-2.102378082E0,-4.978048096E0,-2.059866486E0,5.783079317E0
5.940106375E0,-2.260000305E0,-4.895569611E0,-1.898502045E0,5.716512329E0
5.950113375E0,-2.298919373E0,-4.634961548E0,-1.705852661E0,5.447736423E0
5.960119375E0,-2.091001740E0,-4.412973175E0,-1.854194183E0,5.223471699E0
5.970125375E0,-1.867516479E0,-3.746558990E0,-2.405946808E0,4.828343620E0
5.980132375E0,-1.660946045E0,-2.882106628E0,-3.072810059E0,4.528514330E0
5.990138375E0,-1.542392578E0,-2.387535095E0,-3.433410187E0,4.457309077E0
6.000145375E0,-1.371448059E0,-2.406994629E0,-2.869981842E0,3.988895674E0
6.010151375E0,-1.523681488E0,-2.224224701E0,-1.753154297E0,3.215949438E0
6.020157375E0,-1.567091217E0,-1.880090332E0,-6.774911499E-1,2.539588313E0
6.030164375E0,-1.361418915E0,-1.835932159E0,9.385482788E-2,2.287557012E0
6.040170375E0,-1.473535767E0,-2.211800537E0,7.897576904E-1,2.772559554E0
6.050176750E0,-1.637295227E0,-2.453847198E0,1.365460510E0,3.250628268E0
6.060183750E0,-1.502575378E0,-2.664459229E0,1.487456818E0,3.401411991E0
6.070189750E0,-1.290017395E0,-3.017425232E0,1.339414673E0,3.544436708E0
6.080196750E0,-1.168320465E0,-3.489842834E0,1.131197662E0,3.850140760E0
6.090202750E0,-1.041534119E0,-3.942501526E0,9.101074219E-1,4.178086538E0
6.100208750E0,-9.705816650E-1,-4.404889984E0,7.063810730E-1,4.565529406E0
6.110215750E0,-1.024918671E0,-5.019062805E0,4.945715332E-1,5.146460019E0
6.120221750E0,-1.291214905E0,-5.723497925E0,3.634442139E-1,5.878584534E0
6.130227750E0,-1.508862305E0,-6.150410156E0,1.495390320E-1,6.334553849E0
6.140234750E0,-1.510658569E0,-6.408024445E0,-2.302212524E-1,6.587705854E0
6.150240750E0,-1.691781921E0,-6.710545349E0,-3.517684937E-1,6.929450629E0
6.160247750E0,-1.790726166E0,-6.643035736E0,-3.688330078E-1,6.890040768E0
6.170253750E0,-1.704954529E0,-6.326144714E0,-7.870632935E-1,6.598973066E0
6.180259750E0,-1.584904175E0,-5.858816528E0,-1.467248840E0,6.244235062E0
6.190266750E0,-1.556762695E0,-5.128634949E0,-2.289189606E0,5.828103944E0
6.200272750E0,-1.446292419E0,-4.569248199E0,-2.955304413E0,5.630596331E0
6.210278750E0,-1.432970123E0,-3.834575958E0,-3.210673370E0,5.202480144E0
6.220285750E0,-1.888023834E0,-2.699785767E0,-3.666924591E0,4.929484064E0
6.230291750E0,-2.837050323E0,-1.929786987E0,-4.748126221E0,5.858125550E0
6.240298750E0,-4.006418610E0,-1.157991943E0,-5.989045715E0,7.298013702E0
6.250304750E0,-4.411326599E0,-1.094224548E-1,-6.981631622E0,8.259234574E0
6.260310750E0,-2.478695526E0,1.270557861E0,-6.814728699E0,7.361981800E0
6.270317750E0,1.084345093E0,2.991229706E0,-5.610033875E0,6.449475909E0
6.280323750E0,5.588179321E0,5.754932556E0,-2.973865814E0,8.555166552E0
6.290330750E0,1.043285477E1,8.932375031E0,1.494043121E0,1.381535186E1
6.300336750E0,1.474014771E1,1.183603683E1,6.490802307E0,1.998735192E1
6.310342750E0,1.699895050E1,1.435544769E1,1.012210098E1,2.444381568E1
6.320349750E0,1.800919968E1,1.730476456E1,1.170161636E1,2.758104376E1
6.330355750E0,1.951222412E1,2.065719315E1,1.310060715E1,3.129013305E1
6.340361750E0,2.087154739E1,2.250824387E1,1.505030273E1,3.418704645E1
6.350368750E0,2.252411087E1,2.356070526E1,1.837937988E1,3.741983442E1
6.360374750E0,2.317480774E1,2.383074371E1,2.246258881E1,4.011912207E1
6.370381750E0,2.222937378E1,2.347089203E1,2.391456940E1,4.021112359E1
6.380387750E0,2.062022003E1,2.363300491E1,2.480701355E1,3.998875238E1
6.390393750E0,2.040526703E1,2.393372955E1,2.723376709E1,4.160380274E1
6.400400750E0,2.096240845E1,2.473591141E1,2.849115234E1,4.316287343E1
6.410406750E0,2.065809128E1,2.456077560E1,2.891581924E1,4.319853049E1
6.420412750E0,1.973975098E1,2.335682922E1,2.694097595E1,4.075555699E1
6.430419750E0,1.910342422E1,2.205289078E1,2.318483688E1,3.726670726E1
6.440425750E0,1.796264648E1,2.055121353E1,2.024989014E1,3.398627807E1
6.450432750E0,1.613165405E1,1.936058945E1,1.805260941E1,3.099934503E1
6.460438750E0,1.467084183E1,1.818837708E1,1.662891998E1,2.868050976E1
6.470444750E0,1.307366318E1,1.715268082E1,1.613674347E1,2.693565700E1
6.480451750E0,1.193453201E1,1.626861923E1,1.618449417E1,2.586578585E1
6.490457750E0,1.070903046E1,1.522498947E1,1.547975967E1,2.420963852E1
6.500463750E0,9.292975159E0,1.410980850E1,1.406909317E1,2.198602888E1
6.510470750E0,7.811505890E0,1.303698944E1,1.252744904E1,1.969567712E1
6.520476750E0,6.655310211E0,1.192614944E1,1.128203888E1,1.771469999E1
6.530483750E0,5.855822754E0,1.071247330E1,1.039124130E1,1.603201921E1
6.540489750E0,5.288652191E0,9.486372986E0,9.776320038E0,1.461292400E1
6.550495750E0,4.856201477E0,8.101003876E0,9.196425934E0,1.318268586E1
6.560502750E0,4.482279053E0,6.636299744E0,8.461903381E0,1.165054113E1
6.570508750E0,4.127367096E0,5.107828217E0,7.520361328E0,9.984032389E0
6.580514750E0,3.785627747E0,3.392694855E0,6.563401337E0,8.301782515E0
6.590521750E0,3.279679871E0,1.632205811E0,5.747148743E0,6.815432087E0
6.600527750E0,2.558329926E0,2.207908630E-1,5.063969421E0,5.677815329E0
6.610534750E0,1.963317261E0,-7.497908020E-1,4.284390564E0,4.772085856E0
6.620540750E0,1.643282776E0,-1.606159973E0,3.496728516E0,4.184165204E0
6.630546750E0,1.365909576E0,-2.350861359E0,2.785707092E0,3.892611219E0
6.640553750E0,1.188827820E0,-2.850671997E0,2.287093964E0,3.843233173E0
6.650559750E0,9.337582397E-1,-3.047812042E0,1.767075348E0,3.644669804E0
6.660565750E0,7.068301392E-1,-3.096460876E0,1.184187469E0,3.389687119E0
6.670572750E0,6.183641052E-1,-3.123554535E0,5.739065552E-1,3.235480773E0
6.680578750E0,4.960684204E-1,-3.072061615E0,-7.125183105E-2,3.112671404E0
6.690585750E0,2.808160400E-1,-2.925067291E0,-8.119116211E-1,3.048618833E0
6.700591750E0,2.469863892E-2,-2.763253784E0,-1.580563202E0,3.183451199E0
6.710597750E0,-2.573149109E-1,-2.409389648E0,-2.215991821E0,3.283593945E0
6.720604750E0,-6.225553894E-1,-2.133513336E0,-2.843486938E0,3.608998800E0
6.730610750E0,-7.728428650E-1,-2.010020142E0,-3.303630066E0,3.943531244E0
6.740616750E0,-1.040486298E0,-1.928439789E0,-3.564088440E0,4.183804269E0
6.750623750E0,-1.290765839E0,-1.961371307E0,-3.650159454E0,4.340128788E0
6.760629750E0,-1.449585571E0,-2.029180298E0,-3.564537506E0,4.350264204E0
6.770636750E0,-1.517993317E0,-2.099683685E0,-3.244652710E0,4.152197791E0
6.780642750E0,-1.527423706E0,-2.227966919E0,-2.782264252E0,3.877867215E0
6.790648750E0,-1.558259583E0,-2.513423309E0,-2.140399017E0,3.650585927E0
6.800655750E0,-1.848655701E0,-2.859054565E0,-1.556463318E0,3.743567679E0
6.810661750E0,-2.101779327E0,-3.022364960E0,-1.090781708E0,3.839527448E0
6.820668750E0,-2.183659058E0,-3.134332123E0,-7.120692444E-1,3.885800734E0
6.830674750E0,-2.198627930E0,-3.313210144E0,-5.227130127E-1,4.010555463E0
6.840680750E0,-2.037562866E0,-3.566483459E0,-4.938230896E-1,4.137067554E0
6.850687750E0,-1.885030060E0,-3.863316193E0,-5.511538696E-1,4.333857510E0
6.860693750E0,-1.991009674E0,-3.955823822E0,-5.581892395E-1,4.463657341E0
6.870699750E0,-2.147434387E0,-3.832779694E0,-7.873626709E-1,4.463363597E0
6.880706750E0,-2.605032806E0,-3.672463074E0,-1.214723969E0,4.663553931E0
6.890712750E0,-3.071163483E0,-3.461401978E0,-1.751507721E0,4.947840750E0
6.900719750E0,-3.282523956E0,-3.145409088E0,-2.232307892E0,5.064756695E0
6.910725750E0,-3.784130859E0,-2.845881958E0,-2.908601532E0,5.556856427E0
6.920731750E0,-4.283492432E0,-2.490520935E0,-3.441343689E0,6.032731415E0
6.930738750E0,-4.397704926E0,-1.986219635E0,-4.184398499E0,6.387023395E0
6.940744750E0,-4.195924530E0,-1.219813385E0,-5.356311493E0,6.912582742E0
6.950750750E0,-2.349813538E0,-2.993774414E-3,-6.102360077E0,6.539146055E0
6.960757750E0,1.352736969E0,2.143542480E0,-5.820496216E0,6.348452400E0
6.970763750E0,5.707630920E0,5.355263672E0,-3.506009216E0,8.576013080E0
6.980770750E0,9.698332214E0,9.926308136E0,1.454974365E-1,1.387841527E1
6.990776750E0,1.196881073E1,1.442116104E1,3.458707581E0,1.905741258E1
7.000782750E0,1.343082047E1,1.644644943E1,6.633156281E0,2.224570519E1
7.010789750E0,1.486184464E1,1.732033218E1,1.053000275E1,2.513462335E1
7.020795750E0,1.595472198E1,1.862037872E1,1.575608505E1,2.914662714E1
7.030801750E0,1.680151108E1,2.113395172E1,2.193718140E1,3.478756412E1
7.040808750E0,1.734562958E1,2.422502380E1,2.593716339E1,3.950264660E1
7.050814417E0,1.781804718E1,2.695759140E1,2.735172180E1,4.233569682E1
7.060821417E0,1.708861404E1,2.951307724E1,2.669907898E1,4.331146819E1
7.070827417E0,1.612012802E1,3.152968369E1,2.531191360E1,4.352783536E1
7.080833417E0,1.695643890E1,3.268198746E1,2.527404236E1,4.465882154E1
7.090840417E0,1.759126877E1,3.277479446E1,2.441408066E1,4.449367622E1
7.100846417E0,1.762943939E1,3.233261398E1,2.318244186E1,4.351575199E1
7.110852417E0,1.844419510E1,3.201557327E1,2.353989853E1,4.380995421E1
7.120859417E0,1.974858261E1,3.191408432E1,2.424927338E1,4.468268739E1
7.130865417E0,1.923320435E1,3.077121094E1,2.296689011E1,4.294486713E1
7.140872417E0,1.729608261E1,2.868035889E1,1.937436081E1,3.869216092E1
7.150878417E0,1.482711685E1,2.586755814E1,1.471889191E1,3.325086070E1
7.160884417E0,1.161928757E1,2.281989578E1,1.042447220E1,2.764823878E1
7.170891417E0,8.125103760E0,1.946971252E1,7.167994080E0,2.228154295E1
7.180897417E0,4.872667236E0,1.639121429E1,5.207969971E0,1.787561868E1
7.190904417E0,2.338736572E0,1.379561188E1,4.259242859E0,1.462633739E1
7.200910417E0,6.866221619E-1,1.144205612E1,4.306245117E0,1.224482933E1
7.210916417E0,-1.944456482E-1,9.311835938E0,5.293591919E0,1.071308607E1
7.220923417E0,-1.387614441E-1,7.680677948E0,5.993536377E0,9.743436087E0
7.230929417E0,6.529421997E-1,6.173611908E0,6.226601715E0,8.792632508E0
7.240935417E0,1.501228180E0,4.813689880E0,6.074068909E0,7.894277004E0
7.250942417E0,2.235002289E0,3.410807190E0,5.691913605E0,7.001908411E0
7.260948417E0,2.660118256E0,1.917362823E0,5.011278992E0,5.988775039E0
7.270955417E0,2.732866974E0,5.912704468E-1,4.076921997E0,4.943627778E0
7.280961417E0,2.522254944E0,-3.971241760E-1,3.004851379E0,3.943172508E0
7.290967417E0,2.221679993E0,-1.152453461E0,1.861977997E0,3.119450758E0
7.300974417E0,1.725312195E0,-1.809287567E0,9.663903809E-1,2.680323495E0
7.310980417E0,9.846524048E-1,-2.502645721E0,4.432283020E-1,2.725660891E0
7.320986417E0,1.387614441E-1,-3.189716949E0,1.823208618E-1,3.197935248E0
7.330993417E0,-6.589297485E-1,-3.768563232E0,1.333726501E-1,3.828060281E0
7.340999417E0,-1.425934753E0,-4.225562897E0,1.457968140E-1,4.462054283E0
7.351006417E0,-1.935325470E0,-4.433031464E0,1.701960754E-1,4.840063981E0
7.361012417E0,-2.240989838E0,-4.438120880E0,1.481918335E-1,4.974023846E0
7.371018417E0,-2.414778442E0,-4.331841888E0,2.260299683E-2,4.959487874E0
7.381025417E0,-2.467169495E0,-4.253105621E0,-2.555186462E-1,4.923527447E0
7.391031417E0,-2.610122223E0,-4.229305115E0,-6.349795532E-1,5.010285302E0
7.401037417E0,-2.839894409E0,-4.200115814E0,-1.079704742E0,5.183795467E0
7.411044417E0,-3.175795898E0,-4.304748230E0,-1.498234406E0,5.555289664E0
7.421050417E0,-3.714226227E0,-4.386178894E0,-1.814975739E0,6.027286179E0
7.431057417E0,-4.726571045E0,-4.519401855E0,-2.582729187E0,7.031070831E0
7.441063417E0,-5.630541229E0,-4.884043579E0,-3.750151520E0,8.343890737E0
7.451069417E0,-5.322182465E0,-4.920567627E0,-4.028422852E0,8.292514856E0
7.461076417E0,-4.045936432E0,-4.607718201E0,-3.074905701E0,6.859716736E0
7.471082417E0,-2.657124481E0,-4.418661346E0,-1.648970947E0,5.413315416E0
7.481089417E0,-1.734293518E0,-4.223467255E0,-4.599934387E-1,4.588795443E0
7.491095417E0,-8.409512329E-1,-3.941004639E0,3.198847961E-1,4.042405574E0
7.501101417E0,-1.740879822E-1,-3.530707855E0,7.702981567E-1,3.617950226E0
7.511108417E0,8.816665649E-2,-3.051853638E0,1.031355286E0,3.222619697E0
7.521114417E0,2.395019531E-1,-2.771486664E0,1.100212097E0,2.991482270E0
7.531120417E0,1.182540894E-2,-2.724783783E0,9.336085510E-1,2.880314467E0
7.541127417E0,-5.387297058E-1,-2.839445343E0,5.137316895E-1,2.935404538E0
7.551133417E0,-8.214916992E-1,-2.788850555E0,8.981323242E-3,2.907338421E0
7.561140417E0,-7.948471069E-1,-2.504441986E0,-5.022056580E-1,2.675111607E0
7.571146417E0,-5.327421570E-1,-2.192939758E0,-7.662565613E-1,2.383264171E0
7.581152417E0,-7.274871826E-2,-1.938319244E0,-5.948629761E-1,2.028850864E0
7.591159417E0,4.263134766E-1,-1.337019653E0,-2.043251038E-1,1.418137328E0
7.601165417E0,8.216413879E-1,-2.559677124E-2,3.710783386E-1,9.019140194E-1
7.611171417E0,1.279688873E0,1.251846771E0,2.296224976E-1,1.804840836E0
7.621178417E0,2.047442322E0,2.736160126E0,-5.695655823E-1,3.464534203E0
7.631184417E0,2.537223816E0,4.893174591E0,-1.351689148E0,5.675185092E0
7.641191417E0,2.636617126E0,7.330855408E0,-2.218536530E0,8.100314513E0
7.651197417E0,2.454595642E0,9.967622223E0,-3.173550568E0,1.074476411E1
7.661203417E0,1.868115234E0,1.286993683E1,-3.780987396E0,1.354330071E1
7.671210417E0,2.150877228E0,1.521406219E1,-3.565285950E0,1.577356096E1
7.681216417E0,3.914360046E0,1.659943130E1,-1.427281952E0,1.711433516E1
7.691222417E0,7.401209106E0,1.816083435E1,3.414100342E0,1.990602627E1
7.701229417E0,1.102367615E1,1.987162674E1,8.788075104E0,2.436459007E1
7.711235417E0,1.327514420E1,2.144141235E1,1.287128403E1,2.831313422E1
7.721242417E0,1.471814346E1,2.315025879E1,1.539264084E1,3.145618573E1
7.731248417E0,1.517619095E1,2.480237320E1,1.687291260E1,3.361799619E1
7.741254417E0,1.564217194E1,2.598012405E1,1.778287033E1,3.515501196E1
7.751261417E0,1.548110687E1,2.661076263E1,1.841874802E1,3.587544615E1
7.761267417E0,1.422776321E1,2.733256165E1,1.758064087E1,3.547643028E1
7.771273417E0,1.251188141E1,2.795107544E1,1.565938614E1,3.439514746E1
7.781280417E0,1.123728195E1,2.834191269E1,1.359682526E1,3.338284256E1
7.791286417E0,1.094314362E1,2.911221085E1,1.167856430E1,3.322140991E1
7.801293417E0,1.100286942E1,2.968956024E1,1.042836411E1,3.333592508E1
7.811299417E0,1.174577454E1,2.947116440E1,1.018272491E1,3.331967342E1
7.821305417E0,1.272099655E1,2.801379501E1,1.128817612E1,3.277223496E1
7.831312417E0,1.298130524E1,2.581456833E1,1.295301407E1,3.166523010E1
7.841318417E0,1.214244965E1,2.313424210E1,1.450109482E1,2.988166648E1
7.851324417E0,1.020652542E1,2.036305481E1,1.537228317E1,2.747970619E1
7.861331417E0,7.650889893E0,1.834779556E1,1.538081543E1,2.513458178E1
7.871337417E0,5.567073212E0,1.685255493E1,1.404559204E1,2.263359379E1
7.881344417E0,3.720064087E0,1.556942322E1,1.213391739E1,2.008675602E1
7.891350417E0,2.287692719E0,1.430590073E1,1.042058029E1,1.784603113E1
7.901356417E0,1.075064392E0,1.293175827E1,9.013356628E0,1.579958016E1
7.911363417E0,6.541397095E-2,1.151525391E1,8.059390411E0,1.405557275E1
7.921369417E0,-5.821394348E-1,1.007420059E1,7.155869293E0,1.237072630E1
7.931375417E0,-8.623567200E-1,8.577612762E0,6.315666504E0,1.068675550E1
7.941382417E0,-5.911207581E-1,7.138355713E0,5.560486908E0,9.067775950E0
7.951388417E0,2.796185303E-1,5.874533844E0,4.772974548E0,7.574273592E0
7.961395417E0,1.361269226E0,4.784051514E0,3.870950317E0,6.302734260E0
7.971401417E0,2.126627655E0,3.720213776E0,3.147355042E0,5.316801621E0
7.981407417E0,2.372715912E0,2.550396423E0,2.678679657E0,4.394272115E0
7.991414417E0,2.623893585E0,1.608854370E0,2.397264862E0,3.901295778E0
8.001420417E0,2.705024872E0,9.602531433E-1,2.236050110E0,3.638566442E0
8.011426417E0,2.440674591E0,3.863465881E-1,1.893412628E0,3.113064009E0
8.021433417E0,1.885030060E0,-1.448986816E-1,1.396745453E0,2.350581165E0
8.031439417E0,1.426533508E0,-2.987786865E-1,1.046324158E0,1.794174127E0
8.041445417E0,1.051563263E0,-1.814227295E-1,9.319619751E-1,1.416775432E0
8.051452417E0,4.465214539E-1,-5.559439087E-1,5.252577209E-1,8.856357670E-1
8.061458792E0,-4.370910645E-1,-1.396296387E0,-1.594184875E-1,1.471769837E0
8.071465792E0,-1.594035187E0,-1.810185699E0,-6.580316162E-1,2.500145206E0
8.081471792E0,-2.468965759E0,-1.993105316E0,-4.724176025E-1,3.208027293E0
8.091477792E0,-2.713706818E0,-2.014361115E0,1.070424042E0,3.545089988E0
8.101484792E0,-1.990410919E0,-1.985321503E0,2.471061401E0,3.742910839E0
8.111490792E0,-1.044827271E0,-2.005828857E0,2.514770508E0,3.382171512E0
8.121496792E0,-9.918374634E-1,-2.291884003E0,1.113983459E0,2.734489529E0
8.131503792E0,-1.289418640E0,-2.731819153E0,-7.997868347E-1,3.124915246E0
8.141509792E0,-1.779050446E0,-3.558549957E0,-1.984722748E0,4.446056980E0
8.151516792E0,-2.331850891E0,-4.668342133E0,-2.291285248E0,5.699204763E0
8.161522792E0,-3.072510681E0,-5.679190063E0,-2.038610687E0,6.771222578E0
8.171528792E0,-3.619772644E0,-6.393354950E0,-1.605261841E0,7.520279721E0
8.181535792E0,-3.322640533E0,-6.664740601E0,-1.294657745E0,7.558759559E0
8.191541792E0,-2.498454437E0,-6.537205811E0,-1.116677856E0,7.086910739E0
8.201547792E0,-1.642085266E0,-6.275250549E0,-1.351240082E0,6.625787745E0
8.211554792E0,-1.308429108E0,-5.741310883E0,-1.876797180E0,6.180372564E0
8.221560792E0,-1.205892334E0,-5.161117401E0,-2.098635864E0,5.700489597E0
8.231567792E0,-1.444945221E0,-5.028642883E0,-2.236349487E0,5.690024162E0
8.241573792E0,-1.681902466E0,-4.961582336E0,-2.462529144E0,5.788794777E0
8.251579792E0,-1.955683136E0,-4.723277893E0,-2.563119965E0,5.718709167E0
8.261586792E0,-2.174078979E0,-4.194427643E0,-2.719245300E0,5.451067571E0
8.271592792E0,-1.857936401E0,-3.529210968E0,-2.913690948E0,4.939317025E0
8.281598792E0,-1.315614166E0,-2.860102386E0,-3.162922668E0,4.462634435E0
8.291605792E0,-1.392853546E0,-1.928589478E0,-3.616778870E0,4.329040051E0
8.301611792E0,-1.609303436E0,-7.927514648E-1,-4.225113831E0,4.590196000E0
8.311618792E0,-1.434916077E0,4.954696655E-1,-4.827161865E0,5.060233790E0
8.321624792E0,-1.388362885E0,1.943408661E0,-5.208568726E0,5.730059065E0
8.331630792E0,-1.223256226E0,3.502416687E0,-5.239404602E0,6.419862851E0
8.341637792E0,1.197509766E-2,5.193001099E0,-4.214186554E0,6.687807722E0
8.351643792E0,2.270029449E0,6.765481110E0,-1.932631073E0,7.393228741E0
8.361649792E0,4.671784973E0,8.272247772E0,1.702858887E0,9.651703810E0
8.371656792E0,7.563321991E0,1.034094589E1,6.022276611E0,1.415651147E1
8.381662792E0,1.059601547E1,1.328681992E1,1.037327866E1,1.991029978E1
8.391668792E0,1.226384720E1,1.674986847E1,1.311662384E1,2.455617769E1
8.401675792E0,1.255109985E1,1.917856796E1,1.386027740E1,2.678534798E1
8.411681792E0,1.251712051E1,2.096869537E1,1.355835526E1,2.793194388E1
8.421688792E0,1.223929825E1,2.259581177E1,1.308997925E1,2.883953342E1
8.431694792E0,1.234812195E1,2.435151077E1,1.370055954E1,3.054795450E1
8.441700792E0,1.411534698E1,2.602308472E1,1.541045380E1,3.337553063E1
8.451707792E0,1.666170181E1,2.802157883E1,1.682426376E1,3.668619684E1
8.461713792E0,1.845781677E1,3.000914566E1,1.663505722E1,3.896106970E1
8.471719792E0,1.884221741E1,3.157204559E1,1.607956238E1,4.012948475E1
8.481726792E0,1.866588409E1,3.248694305E1,1.557017166E1,4.057396879E1
8.491732792E0,1.829809891E1,3.264935532E1,1.471380249E1,4.021562893E1
8.501738792E0,1.663490753E1,3.231075943E1,1.428165115E1,3.904703424E1
8.511745792E0,1.457294540E1,3.164913528E1,1.423360107E1,3.763819737E1
8.521751792E0,1.324999649E1,3.109932861E1,1.487082596E1,3.693063920E1
8.531758792E0,1.312889832E1,3.109468826E1,1.744696884E1,3.799531986E1
8.541764792E0,1.382480118E1,3.101729919E1,2.044688049E1,3.963928479E1
8.551770792E0,1.515463577E1,3.027903442E1,2.120460480E1,3.995144773E1
8.561777792E0,1.611518829E1,2.945245331E1,1.962284409E1,3.888704552E1
8.571783792E0,1.584514984E1,2.850851624E1,1.688099579E1,3.672563533E1
8.581789792E0,1.504281830E1,2.649445450E1,1.407508072E1,3.356114418E1
8.591796792E0,1.255020172E1,2.409853683E1,1.170386169E1,2.958424275E1
8.601802792E0,9.840386810E0,2.065809128E1,1.001058289E1,2.497602285E1
8.611808792E0,6.812333679E0,1.660916107E1,9.303303680E0,2.021938627E1
8.621815792E0,3.033142548E0,1.278476395E1,8.201894073E0,1.548939022E1
8.631821792E0,-7.824229431E-1,9.184750214E0,6.590045929E0,1.133139566E1
8.641828792E0,-3.613036652E0,6.136788483E0,4.921914825E0,8.656757608E0
8.651834792E0,-4.907844086E0,3.669020233E0,3.921096039E0,7.274863379E0
8.661840792E0,-4.447401581E0,1.672172699E0,3.626059570E0,5.976943229E0
8.671847792E0,-3.154689789E0,-2.170486450E-1,3.870201874E0,4.997763532E0
8.681853792E0,-1.584904175E0,-2.241289215E0,4.395160217E0,5.181962169E0
8.691859792E0,-2.034269714E-1,-4.424648895E0,4.933590546E0,6.630174662E0
8.701866792E0,7.783813477E-1,-5.947581940E0,4.885091400E0,7.735872701E0
8.711872792E0,1.325044556E0,-7.054530029E0,4.054917755E0,8.244058164E0
8.721879792E0,1.363963623E0,-7.905809784E0,2.698438568E0,8.464265816E0
8.731885792E0,9.355545044E-1,-8.491691437E0,1.023571472E0,8.604172491E0
8.741891792E0,1.151106262E-1,-8.819659424E0,-4.451742554E-1,8.831637613E0
8.751898792E0,-6.872209167E-1,-9.121731262E0,-1.679058380E0,9.300402725E0
8.761904792E0,-1.451082458E0,-9.418713684E0,-2.447410583E0,9.839086661E0
8.771910792E0,-2.307451630E0,-9.597292328E0,-3.005899200E0,1.031832269E1
8.781917792E0,-3.219505005E0,-9.607770538E0,-3.491190033E0,1.071740990E1
8.791923792E0,-4.232149200E0,-9.591155090E0,-3.799548798E0,1.115069118E1
8.801929792E0,-4.600832520E0,-9.364825745E0,-3.742367706E0,1.108480659E1
8.811936792E0,-4.609215088E0,-8.919052734E0,-3.306623840E0,1.057015263E1
8.821942792E0,-4.636308746E0,-8.490493927E0,-2.777623901E0,1.006474244E1
8.831949792E0,-4.286186829E0,-7.833659821E0,-2.198029175E0,9.196138101E0
8.841955792E0,-3.553610229E0,-7.100185089E0,-1.852697296E0,8.153113591E0
8.851961792E0,-2.562820587E0,-6.426286469E0,-1.671424255E0,7.117504210E0
8.861968792E0,-1.708996124E0,-5.719156952E0,-1.496288452E0,6.153722705E0
8.871974792E0,-1.059646454E0,-5.075495453E0,-1.359772339E0,5.360269164E0
8.881980792E0,-7.423063660E-1,-4.507127380E0,-1.129102020E0,4.705325423E0
8.891987792E0,-7.041357422E-1,-4.157304840E0,-8.571176147E-1,4.302748108E0
8.901993792E0,-8.473878479E-1,-3.864962769E0,-5.453160095E-1,3.994167362E0
8.911999792E0,-7.441026306E-1,-3.608246613E0,7.783813477E-2,3.684995403E0
8.922006792E0,-6.089337158E-1,-3.301983490E0,8.110134888E-1,3.454220334E0
8.932012792E0,-6.640191650E-1,-2.869532776E0,1.567839661E0,3.336654163E0
8.942019792E0,-4.534071350E-1,-2.575095062E0,2.611020355E0,3.695148157E0
8.952025792E0,-1.245410156E-1,-2.496209106E0,3.816912689E0,4.562388941E0
8.962031792E0,1.344204712E-1,-2.402503967E0,5.070406036E0,5.612406930E0
8.972038792E0,6.033952332E-1,-2.049537964E0,5.555547180E0,5.952209350E0
8.982044792E0,1.079255676E0,-1.637594604E0,5.593268738E0,5.927154805E0
8.992050792E0,1.047821045E0,-8.800199890E-1,5.311554565E0,5.484977304E0
9.002057792E0,1.251846771E0,-1.646575928E-3,4.774321747E0,4.935713848E0
9.012063792E0,1.407073975E0,6.358776855E-1,4.118236084E0,4.398188951E0
9.022069792E0,1.664837952E0,1.259929962E0,3.455713806E0,4.037457966E0
9.032076792E0,2.070344696E0,2.034868469E0,2.760409698E0,4.005855533E0
9.042082792E0,2.038311310E0,3.013233948E0,1.885030060E0,4.097271061E0
9.052089792E0,1.426982574E0,3.511697388E0,7.393125916E-1,3.861978886E0
9.062095667E0,6.969506836E-1,3.642675018E0,-4.947212219E-1,3.741600010E0
9.072101667E0,-4.757107544E-1,3.948938141E0,-1.897154846E0,4.406768620E0
9.082108667E0,-1.786983948E0,4.625830536E0,-3.108435974E0,5.852691174E0
9.092114667E0,-2.296674042E0,5.781427460E0,-3.694467316E0,7.235240416E0
9.102120667E0,-2.217488708E0,7.315886536E0,-3.627107391E0,8.461404139E0
9.112127667E0,-1.758842468E-1,9.046138458E0,-1.320254517E0,9.143666019E0
9.122133667E0,3.546874237E0,1.109208389E1,3.671115875E0,1.221031260E1
9.132139667E0,8.037236481E0,1.281964142E1,9.133257294E0,1.767361777E1
9.142146667E0,1.108175537E1,1.392973297E1,1.313144302E1,2.211961931E1
9.152152667E0,1.257055939E1,1.544742691E1,1.563274155E1,2.531846302E1
9.162159667E0,1.290107208E1,1.734488113E1,1.632430344E1,2.708810523E1
9.172165667E0,1.379755783E1,1.950503906E1,1.576027634E1,2.862176551E1
9.182171667E0,1.422192535E1,2.132450546E1,1.498952911E1,2.969315876E1
9.192178667E0,1.424243271E1,2.265508850E1,1.404424484E1,3.022152772E1
9.202184667E0,1.377241013E1,2.390723465E1,1.301618271E1,3.050665766E1
9.212190667E0,1.318892349E1,2.429013840E1,1.219244568E1,3.020950608E1
9.222197667E0,1.288924667E1,2.470597366E1,1.140448425E1,3.010946820E1
9.232203667E0,1.347228424E1,2.503469009E1,1.118399277E1,3.055028388E1
9.242209667E0,1.471320374E1,2.573313766E1,1.220786362E1,3.205783324E1
9.252216667E0,1.567300781E1,2.692031891E1,1.381058075E1,3.407460762E1
9.262222667E0,1.703098389E1,2.860551453E1,1.526645325E1,3.662505247E1
9.272228667E0,1.902019730E1,3.055191696E1,1.746313522E1,4.000185779E1
9.282235667E0,2.098725677E1,3.243305511E1,1.965667374E1,4.334458251E1
9.292241667E0,2.311642914E1,3.335992767E1,2.119622223E1,4.578792316E1
9.302248667E0,2.462199829E1,3.205988113E1,2.175141769E1,4.590428030E1
9.312254667E0,2.510504379E1,2.992277527E1,2.147015259E1,4.457132661E1
9.322260667E0,2.548660034E1,2.764211792E1,2.162762512E1,4.337519624E1
9.332267667E0,2.572475510E1,2.608655273E1,2.235750732E1,4.292003486E1
9.342273667E0,2.541460007E1,2.552357346E1,2.267350021E1,4.256104217E1
9.352279667E0,2.414793411E1,2.440300369E1,2.197879486E1,4.076391461E1
9.362286667E0,2.069716003E1,2.173031158E1,2.127705414E1,3.678711606E1
9.372292667E0,1.564771042E1,1.844509323E1,2.087409210E1,3.194996129E1
9.382298667E0,7.251071320E0,1.370265518E1,1.950788315E1,2.491783095E1
9.392305667E0,-1.733096008E0,8.386909332E0,1.742331802E1,1.941432154E1
9.402311667E0,-8.913214874E0,3.116070099E0,1.429257843E1,1.712988880E1
9.412317667E0,-1.304881485E1,-8.981323242E-1,1.036564453E1,1.668906220E1
9.422324667E0,-1.448507813E1,-4.667294312E0,6.530918884E0,1.656061671E1
9.432330667E0,-1.361433884E1,-7.585026855E0,3.323538666E0,1.593514241E1
9.442337667E0,-1.117995117E1,-8.893306274E0,5.598358154E-1,1.429669965E1
9.452343667E0,-8.593479767E0,-9.166488190E0,-1.754800873E0,1.268667515E1
9.462349667E0,-5.535937958E0,-8.885971527E0,-3.297043762E0,1.097622871E1
9.472356667E0,-2.990032196E0,-8.342751160E0,-4.819527740E0,1.008809383E1
9.482362667E0,-1.792971497E0,-7.627837830E0,-6.310876465E0,1.006110424E1
9.492368667E0,-1.348994751E0,-7.169640656E0,-6.857090607E0,1.001215389E1
9.502375667E0,-1.190175018E0,-7.173831940E0,-6.735094299E0,9.911704016E0
9.512381667E0,-1.481319580E0,-7.595654755E0,-6.120322723E0,9.866439535E0
9.522387667E0,-2.788102112E0,-8.447383575E0,-5.870342560E0,1.065798876E1
9.532394667E0,-4.386627960E0,-9.477990417E0,-5.633235626E0,1.186626103E1
9.542400667E0,-6.001769257E0,-1.059182419E1,-4.705914001E0,1.305195772E1
9.552407667E0,-7.080276489E0,-1.122860001E1,-3.692072296E0,1.377835880E1
9.562413667E0,-7.683522034E0,-1.123668320E1,-2.744243317E0,1.388633974E1
9.572419667E0,-7.462431793E0,-1.054362442E1,-1.779649200E0,1.303928892E1
9.582426667E0,-6.624174957E0,-9.309740295E0,-9.880952454E-1,1.146853480E1
9.592432667E0,-5.386548615E0,-7.850424957E0,-8.363108826E-1,9.557379028E0
9.602438667E0,-4.128564606E0,-6.495592346E0,-9.035211182E-1,7.749459081E0
9.612445667E0,-2.839295654E0,-5.018164673E0,-6.237528992E-1,5.799365843E0
9.622451667E0,-1.696871338E0,-3.494632874E0,-3.936813354E-1,3.904717180E0
9.632457667E0,-8.099656677E-1,-2.363435211E0,-2.501298523E-1,2.510863462E0
9.642464667E0,-1.133143616E-1,-1.463806000E0,3.817062378E-2,1.468681431E0
9.652470667E0,5.016069031E-1,-6.610253906E-1,5.150788879E-1,9.766628451E-1
9.662476667E0,8.089178467E-1,5.388793945E-3,9.954299927E-1,1.282676106E0
9.672483667E0,1.009201355E0,2.239343262E-1,1.303040314E0,1.663294326E0
9.682489667E0,1.159339142E0,1.562750244E-1,1.410816193E0,1.832727874E0
9.692496667E0,7.574249268E-1,9.235794067E-2,1.121018829E0,1.356062581E0
9.702502667E0,3.420387268E-1,-7.589218140E-2,6.803352356E-1,7.652490749E-1
9.712508667E0,-1.137634277E-2,-4.011657715E-1,2.755769348E-1,4.868326657E-1
9.722515667E0,-5.099894714E-1,-5.779481506E-1,1.347198486E-3,7.707886486E-1
9.732521667E0,-7.688012695E-1,-5.878276062E-1,-6.391708374E-2,9.698876637E-1
9.742527667E0,-9.026229858E-1,-5.225633240E-1,3.173400879E-2,1.043459501E0
9.752534667E0,-1.265468445E0,-2.522254944E-1,2.859054565E-2,1.290676375E0
9.762540667E0,-1.678908691E0,1.294807434E-1,3.570075989E-1,1.721323352E0
9.772546667E0,-1.975142670E0,8.364605713E-1,6.289920044E-1,2.235282039E0
9.782553667E0,-2.063009949E0,2.098336487E0,4.441264343E-1,2.975949319E0
9.792559667E0,-2.051783295E0,3.592978363E0,-2.098635864E-1,4.142867477E0
9.802566667E0,-2.456391907E0,5.019811249E0,-1.764979706E0,5.860675689E0
9.812572667E0,-3.095862122E0,6.699318695E0,-3.341651001E0,8.101349558E0
9.822578667E0,-3.324586487E0,8.607251129E0,-4.426894226E0,1.023401387E1
9.832585667E0,-2.689756622E0,1.071022797E1,-4.999902649E0,1.212199655E1
9.842591667E0,-1.470392303E0,1.269869293E1,-4.665198669E0,1.360819365E1
9.852597667E0,1.496887207E-4,1.395098877E1,-3.009791107E0,1.427196308E1
9.862604667E0,1.607207794E0,1.415007477E1,-3.176394653E-1,1.424459995E1
9.872610667E0,3.239563293E0,1.387389908E1,3.134481812E0,1.458783131E1
9.882616667E0,4.417014771E0,1.351988525E1,7.721542969E0,1.618392853E1
9.892623667E0,5.447471924E0,1.434481979E1,1.244826370E1,1.975874678E1
9.902629667E0,7.056326294E0,1.644300659E1,1.565085388E1,2.377211463E1
9.912635667E0,8.858428802E0,1.819077209E1,1.730626144E1,2.662484996E1
9.922642667E0,1.007464966E1,2.009062134E1,1.700793182E1,2.818512687E1
9.932648667E0,1.042507095E1,2.174692703E1,1.522992920E1,2.852300270E1
9.942655667E0,1.032702484E1,2.312600922E1,1.332469116E1,2.861830077E1
9.952661667E0,1.009036697E1,2.454715393E1,1.198153427E1,2.911933095E1
9.962667667E0,9.880952454E0,2.559497498E1,1.163410675E1,2.980081216E1
9.972674667E0,1.022837997E1,2.632365967E1,1.216011292E1,3.074773425E1
9.982680667E0,1.113728989E1,2.653457108E1,1.390952499E1,3.196244005E1
9.992686667E0,1.180774567E1,2.565919144E1,1.652309006E1,3.272353080E1
1.000269367E1,1.216175949E1,2.435046295E1,1.895628021E1,3.316917243E1
1.001269967E1,1.200593353E1,2.296254913E1,2.060959213E1,3.310855464E1
1.002270567E1,1.099254089E1,2.147015259E1,2.030153275E1,3.152706201E1
1.003271267E1,9.214987335E0,2.010139893E1,1.817864731E1,2.862595760E1
1.004271867E1,7.190746765E0,1.883398453E1,1.513038620E1,2.520623730E1
1.005272467E1,5.134323120E0,1.752869888E1,1.258343262E1,2.218015633E1
1.006273142E1,2.902613983E0,1.606743759E1,1.014724869E1,1.922379709E1
1.007273742E1,1.014739838E0,1.465811829E1,8.335715790E0,1.689302478E1
1.008274442E1,1.556762695E-1,1.334609665E1,7.417375488E0,1.526957727E1
1.009275042E1,1.570234680E-1,1.181912201E1,6.312672729E0,1.340022904E1
1.010275642E1,4.191284180E-2,1.030307465E1,4.812192993E0,1.137155685E1
1.011276342E1,-2.853067017E-1,8.675808563E0,2.930605774E0,9.161850487E0
1.012276942E1,-3.315605164E-1,7.439828796E0,1.576072540E0,7.612160636E0
1.013277542E1,-4.890330505E-1,6.378086700E0,9.624984741E-1,6.468813384E0
1.014278242E1,-3.736230469E-1,5.314248962E0,1.264720001E0,5.475431754E0
1.015278842E1,8.367599487E-2,4.386029205E0,2.485431519E0,5.041986086E0
1.016279442E1,7.321275330E-1,3.471580811E0,3.970643005E0,5.324837080E0
1.017280142E1,1.342408447E0,2.513572998E0,4.967869263E0,5.727113991E0
1.018280742E1,1.970502319E0,1.763931885E0,5.994584198E0,6.552051190E0
1.019281442E1,2.653831329E0,1.442999268E0,6.517746277E0,7.183737477E0
1.020282042E1,2.896925812E0,1.249601440E0,6.089935913E0,6.858644352E0
1.021282642E1,2.574196930E0,1.074016571E0,5.041366425E0,5.761542923E0
1.022283342E1,2.012115784E0,8.623567200E-1,3.534599762E0,4.157603218E0
1.023283942E1,1.270707550E0,6.716532898E-1,1.923050995E0,2.400820891E0
1.024284542E1,6.776408386E-1,6.038442993E-1,4.080514526E-1,9.951537730E-1
1.025285242E1,2.965333557E-1,7.158114624E-1,-8.711883545E-1,1.165884741E0
1.026285842E1,-1.314266968E-1,7.129673767E-1,-1.846709747E0,1.983918433E0
1.027286442E1,-6.268963623E-1,6.533912659E-1,-2.577041016E0,2.731494022E0
1.028287142E1,-1.047671356E0,5.269042969E-1,-2.797981567E0,3.033800300E0
1.029287742E1,-1.203347626E0,3.381468201E-1,-2.473755798E0,2.771616231E0
1.030288442E1,-1.154549103E0,1.074765015E-1,-1.720222778E0,2.074536391E0
1.031289042E1,-1.271905060E0,-1.805245972E-1,-9.436376953E-1,1.593983598E0
1.032289642E1,-1.275048523E0,-3.149450684E-1,-3.704795837E-1,1.364622385E0
1.033290342E1,-1.201551361E0,-2.309696960E-1,-1.481918335E-2,1.223638951E0
1.034290942E1,-1.183888092E0,-1.945953369E-1,1.763333130E-1,1.212663101E0
1.035291542E1,-1.040935364E0,-1.655557251E-1,2.145039368E-1,1.075624037E0
1.036292242E1,-8.035290527E-1,-4.819976807E-2,2.210902405E-1,8.347832357E-1
1.037292842E1,-5.231620789E-1,1.368154907E-1,2.826123047E-1,6.101530579E-1
1.038293442E1,-3.344046021E-1,3.695814514E-1,3.315605164E-1,5.986228054E-1
1.039294142E1,-1.212478638E-1,5.619314575E-1,3.872447205E-1,6.931280408E-1
1.040294742E1,3.772155762E-2,6.102809143E-1,5.909710693E-1,8.503602266E-1
1.041295442E1,1.999841309E-1,6.712042236E-1,7.403604126E-1,1.019138020E0
1.042296042E1,1.522334290E-1,7.237449646E-1,7.470964050E-1,1.051253932E0
1.043296642E1,1.990859985E-2,7.406597900E-1,8.219407654E-1,1.106598346E0
1.044297342E1,-5.298980713E-2,9.256750488E-1,1.066831512E0,1.413439667E0
1.045297942E1,-5.313949585E-2,1.154998169E0,1.465003510E0,1.866301117E0
1.046298542E1,5.493576050E-2,1.401535492E0,1.799408112E0,2.281488379E0
1.047299242E1,4.775070190E-2,1.751358032E0,1.853296051E0,2.550341416E0
1.048299842E1,-3.118016052E-1,2.156565399E0,1.414408722E0,2.597796488E0
1.049300442E1,-5.598358154E-1,2.970422974E0,6.414161682E-1,3.090023217E0
1.050301142E1,-2.932402039E-1,3.933370514E0,2.207908630E-1,3.950460989E0
1.051301742E1,1.107696533E-1,5.320835266E0,3.516188049E-1,5.333591063E0
1.052302442E1,1.040336609E0,7.348069611E0,1.464255066E0,7.564421337E0
1.053303042E1,2.708168335E0,9.518855438E0,4.071533203E0,1.070140959E1
1.054303642E1,4.470004578E0,1.128742767E1,7.415579224E0,1.422595444E1
1.055304342E1,5.891448669E0,1.202329742E1,1.080318466E1,1.720400091E1
1.056304942E1,7.548502808E0,1.222612564E1,1.454255859E1,2.044368003E1
1.057305542E1,9.009165344E0,1.234408035E1,1.824241470E1,2.379762749E1
1.058306242E1,1.004561005E1,1.243988113E1,2.057291840E1,2.605589943E1
1.059306842E1,1.000639160E1,1.259046799E1,2.038610687E1,2.596615317E1
1.060307442E1,9.048084412E0,1.316003357E1,1.872216705E1,2.460841023E1
1.061308142E1,8.352031860E0,1.434347260E1,1.728500565E1,2.396378648E1
1.062308742E1,8.015381927E0,1.501632339E1,1.737451950E1,2.432303936E1
1.063309442E1,8.234077148E0,1.497949997E1,1.798539917E1,2.481249744E1
1.064310042E1,8.536448364E0,1.468326599E1,1.841231140E1,2.504960004E1
1.065310642E1,8.395740967E0,1.404080200E1,1.781699936E1,2.418838675E1
1.066311342E1,7.664062500E0,1.372690475E1,1.653356827E1,2.281500927E1
1.067311942E1,6.772366791E0,1.360865067E1,1.503234009E1,2.137829678E1
1.068312542E1,6.018833771E0,1.381761612E1,1.461515762E1,2.099418271E1
1.069313242E1,5.695057068E0,1.415561325E1,1.567300781E1,2.187368820E1
1.070313842E1,6.077212372E0,1.487441849E1,1.747301468E1,2.373788275E1
1.071314442E1,6.824308777E0,1.523352173E1,1.892334869E1,2.523340049E1
1.072315142E1,7.846832428E0,1.504790771E1,1.934217773E1,2.573192852E1
1.073315742E1,8.639883270E0,1.460542786E1,1.868519394E1,2.524089100E1
1.074316342E1,8.959917755E0,1.413615372E1,1.690779007E1,2.379042524E1
1.075317042E1,8.567733307E0,1.378737900E1,1.450304077E1,2.176777585E1
1.076317642E1,7.432643738E0,1.356179810E1,1.222717346E1,1.971472372E1
1.077318342E1,5.661526794E0,1.321466995E1,1.076471466E1,1.795994068E1
1.078318942E1,4.162993011E0,1.280197815E1,1.024110352E1,1.691453093E1
1.079319542E1,3.779939575E0,1.263627274E1,1.031669632E1,1.674507554E1
1.080320242E1,4.512366486E0,1.295975006E1,1.007420059E1,1.702369204E1
1.081320842E1,5.447471924E0,1.328487396E1,9.084159393E0,1.699072625E1
1.082321442E1,6.338419189E0,1.305465271E1,8.600365448E0,1.686907825E1
1.083322142E1,7.065606995E0,1.195039902E1,8.186326447E0,1.611678565E1
1.084322742E1,6.897356873E0,1.026385620E1,7.275021515E0,1.434734170E1
1.085323342E1,5.908962250E0,8.276588745E0,6.233637085E0,1.192794984E1
1.086324042E1,4.561913452E0,6.164480896E0,5.487139435E0,9.429770848E0
1.087324642E1,3.058589630E0,4.280648346E0,5.045408020E0,7.289380143E0
1.088325242E1,1.526675262E0,2.590363312E0,4.686454468E0,5.568085391E0
1.089325942E1,2.179467773E-1,1.336720276E0,4.309538269E0,4.517349000E0
1.090326542E1,-8.632548523E-1,4.195774841E-1,3.662733307E0,3.786405879E0
1.091327242E1,-1.561403046E0,-2.760260010E-1,2.907703400E0,3.311934312E0
1.092327842E1,-2.133213959E0,-7.893086243E-1,2.129621429E0,3.115910353E0
1.093328442E1,-2.357747040E0,-1.129850464E0,1.291514282E0,2.916083386E0
1.094329142E1,-2.437830505E0,-1.351539459E0,6.198609924E-1,2.855504182E0
1.095329742E1,-2.349364471E0,-1.433119812E0,1.375639343E-1,2.755407348E0
1.096330342E1,-2.045646057E0,-1.341210938E0,-5.568420410E-2,2.446756077E0
1.097331042E1,-1.798509979E0,-1.228944397E0,-1.695973206E-1,2.184881170E0
1.098331642E1,-1.503922577E0,-1.171763306E0,-3.935316467E-1,1.946709922E0
1.099332342E1,-1.142574005E0,-9.765692139E-1,-6.997947693E-1,1.657973313E0
1.100332942E1,-8.948391724E-1,-7.373666382E-1,-1.010997620E0,1.538363705E0
1.101333542E1,-5.366340637E-1,-6.165678406E-1,-1.264121246E0,1.505368575E0
1.102334242E1,-9.580078125E-2,-4.592449951E-1,-1.367705841E0,1.445926355E0
1.103334842E1,2.375559998E-1,-3.881428528E-1,-1.236877899E0,1.317935759E0
1.104335442E1,4.902305603E-1,-4.278103638E-1,-9.220825195E-1,1.128531737E0
1.105336142E1,5.680686951E-1,-4.944218445E-1,-6.321354675E-1,9.832345864E-1
1.106336800E1,7.077282715E-1,-5.397775269E-1,-3.255729675E-1,9.477535766E-1
1.107337400E1,8.324189758E-1,-4.713697815E-1,-1.026864624E-1,9.621098335E-1
1.108338100E1,9.930349731E-1,-2.151026917E-1,3.143463135E-2,1.016550915E0
1.109338700E1,1.167272644E0,-9.669891357E-2,-4.326004028E-2,1.172069766E0
1.110339300E1,1.340462494E0,-9.026229858E-2,-2.974314880E-1,1.376027787E0
1.111340000E1,1.495390320E0,2.698887634E-1,-4.336482239E-1,1.580216104E0
1.112340600E1,2.020648041E0,8.375083923E-1,-2.692900085E-1,2.203850249E0
1.113341300E1,2.759661255E0,1.259929962E0,-1.228944397E-1,3.036158229E0
1.114341900E1,3.459306335E0,1.469494171E0,2.005828857E-2,3.758539048E0
1.115342500E1,4.451892242E0,2.446213074E0,8.988807678E-1,5.158613145E0
1.116343200E1,5.917344818E0,4.245471497E0,2.749931488E0,7.784672191E0
1.117343800E1,7.696245575E0,6.532116394E0,4.817881165E0,1.118537972E1
1.118344400E1,9.559421082E0,8.954978027E0,6.715335388E0,1.471971101E1
1.119345100E1,1.075004517E1,1.116034195E1,7.084168396E0,1.703825535E1
1.120345700E1,1.074226135E1,1.287727158E1,5.570965118E0,1.767076553E1
1.121346400E1,1.013287857E1,1.330957260E1,3.089275818E0,1.701069005E1
1.122347000E1,8.861871643E0,1.234872070E1,2.096689911E0,1.534339534E1
1.123347600E1,6.040239258E0,1.083761307E1,2.203417969E0,1.260132525E1
1.124348300E1,2.214045868E0,8.760382690E0,3.648063812E0,9.744468870E0
1.125348900E1,-6.524931335E-1,6.474186859E0,7.845335541E0,1.019265091E1
1.126349500E1,-2.276466064E0,4.701273651E0,1.145358215E1,1.258843977E1
1.127350200E1,-3.316503296E0,3.959116974E0,1.172871002E1,1.281547659E1
1.128350800E1,-3.772604828E0,4.216731262E0,9.285490723E0,1.087353244E1
1.129351400E1,-3.573818207E0,5.707181854E0,5.501509552E0,8.695441831E0
1.130352100E1,-2.587818604E0,8.195756836E0,2.822530518E0,9.046209911E0
1.131352700E1,-1.362766113E0,1.138801849E1,1.400038605E0,1.155440197E1
1.132353300E1,4.596940613E-1,1.647863251E1,2.311343536E0,1.664628958E1
1.133354000E1,1.993853760E0,2.092378876E1,4.312981110E0,2.145651870E1
1.134354600E1,3.224893799E0,2.444731155E1,6.566395111E0,2.551839585E1
1.135355300E1,5.177882538E0,2.894081726E1,1.171763306E1,3.164939645E1
1.136355900E1,6.219416656E0,3.265519318E1,1.785651718E1,3.773457288E1
1.137356500E1,6.543043671E0,3.612437897E1,2.226170654E1,4.293443553E1
1.138357200E1,8.044870605E0,3.939432907E1,2.592174545E1,4.783900076E1
1.139357800E1,9.292376404E0,4.072266678E1,2.509007492E1,4.872571917E1
1.140358400E1,9.485474854E0,4.123011154E1,2.016651352E1,4.686773515E1
1.141359100E1,9.278305664E0,4.027898941E1,1.561133606E1,4.418368203E1
1.142359700E1,8.546477509E0,3.718806702E1,1.273716293E1,4.022722866E1
1.143360300E1,6.987020416E0,3.291250809E1,1.146974854E1,3.554724707E1
1.144361000E1,4.990621948E0,2.743599655E1,1.053030212E1,2.980817802E1
1.145361600E1,2.693199463E0,2.183344711E1,8.975186005E0,2.375934974E1
1.146362300E1,9.485774231E-1,1.700868027E1,7.281308441E0,1.852599407E1
1.147362900E1,-1.966909790E-1,1.272219406E1,5.819747772E0,1.399151075E1
1.148363500E1,-1.037342834E0,8.920848999E0,4.372856598E0,9.988969008E0
1.149364200E1,-1.653910675E0,5.777236176E0,2.908900909E0,6.676345022E0
1.150364800E1,-1.955832825E0,3.365152130E0,1.730850677E0,4.259738838E0
1.151365400E1,-2.299069061E0,1.614692230E0,4.745132446E-1,2.849230136E0
1.152366100E1,-2.352657623E0,1.097218323E-1,-6.153703308E-1,2.434279651E0
1.153366700E1,-2.073039093E0,-1.005459137E0,-1.082399139E0,2.545589726E0
1.154367300E1,-1.433269501E0,-1.980980530E0,-8.536747742E-1,2.589846702E0
1.155368000E1,-6.652166748E-1,-3.093467102E0,-3.103047180E-1,3.179361721E0
1.156368600E1,-5.733078003E-2,-4.101321259E0,4.046086121E-1,4.121629655E0
1.157369300E1,2.595602417E-1,-5.359454956E0,1.086291046E0,5.474591965E0
1.158369900E1,1.661544800E-2,-6.702162781E0,1.696122894E0,6.913471985E0
1.159370500E1,-6.394702148E-1,-7.830516357E0,2.129621429E0,8.140098035E0
1.160371200E1,-1.460063782E0,-8.828341370E0,1.920356598E0,9.152003445E0
1.161371800E1,-2.360291748E0,-9.795330505E0,1.769769745E0,1.022993459E1
1.162372400E1,-2.915636902E0,-1.019290375E1,1.724563751E0,1.074105886E1
1.163373100E1,-3.210074615E0,-1.008692413E1,1.689536591E0,1.071938204E1
1.164373700E1,-3.129392395E0,-9.728120270E0,1.348246307E0,1.030762770E1
1.165374300E1,-2.892734528E0,-9.297914886E0,6.418652344E-1,9.758643618E0
1.166375000E1,-2.849923553E0,-8.844956818E0,1.880090332E-1,9.294658292E0
1.167375600E1,-2.686463470E0,-8.263865204E0,-4.505630493E-2,8.689682627E0
1.168376300E1,-2.502645721E0,-7.744295654E0,-4.794529724E-1,8.152743461E0
1.169376900E1,-2.473905487E0,-7.405400391E0,-8.024812317E-1,7.848830450E0
1.170377500E1,-2.486179962E0,-7.032525787E0,-7.849676514E-1,7.500245594E0
1.171378200E1,-2.346969452E0,-6.475833435E0,-8.753796387E-1,6.943412259E0
1.172378800E1,-2.227966919E0,-5.880970459E0,-9.437873840E-1,6.359275490E0
1.173379400E1,-2.059567108E0,-5.343138885E0,-8.665480042E-1,5.791533067E0
1.174380100E1,-1.698966980E0,-4.858147430E0,-8.493338013E-1,5.216268126E0
1.175380700E1,-1.307980042E0,-4.375251617E0,-6.894662476E-1,4.618333272E0
1.176381400E1,-1.093176727E0,-3.987857208E0,-7.062313843E-1,4.194854376E0
1.177382000E1,-9.758207703E-1,-3.660937042E0,-7.129673767E-1,3.855257278E0
1.178382600E1,-8.141569519E-1,-3.262615356E0,-3.820056152E-1,3.384292954E0
1.179383300E1,-5.942642212E-1,-2.997217255E0,4.819976807E-2,3.055942482E0
1.180383900E1,-4.882846069E-1,-2.769091644E0,3.785627747E-1,2.837181729E0
1.181384500E1,-1.919009399E-1,-2.361339569E0,9.553134155E-1,2.554481210E0
1.182385200E1,4.592449951E-1,-1.919308777E0,1.763482819E0,2.646606090E0
1.183385800E1,1.334175568E0,-1.220861206E0,2.592159576E0,3.160667303E0
1.184386400E1,2.130220184E0,-3.561094666E-1,3.143313446E0,3.813800127E0
1.185387100E1,2.588267670E0,4.378395081E-1,3.429518280E0,4.318845748E0
1.186387700E1,2.622396698E0,1.297651520E0,2.997816010E0,4.189005220E0
1.187388400E1,2.674937439E0,2.718796234E0,2.015109558E0,4.313677062E0
1.188389000E1,2.846480713E0,4.246669006E0,1.244362335E0,5.261662068E0
1.189389600E1,3.350931702E0,6.177054749E0,1.064586182E0,7.107608063E0
1.190390300E1,3.918102264E0,8.657995605E0,1.461560669E0,9.615018089E0
1.191390900E1,4.609215088E0,1.156719589E1,2.837050323E0,1.277081591E1
1.192391500E1,6.117778015E0,1.451771027E1,4.720882874E0,1.644621094E1
1.193392200E1,8.007598114E0,1.674612625E1,6.898704071E0,1.980268895E1
1.194392800E1,9.268276520E0,1.882230881E1,9.684111786E0,2.310762384E1
1.195393400E1,1.010578491E1,2.100896164E1,1.311078598E1,2.674688892E1
1.196394100E1,1.025682083E1,2.256527527E1,1.594903381E1,2.947483166E1
1.197394700E1,9.417067108E0,2.322016342E1,1.762464935E1,3.063470919E1
1.198395300E1,9.274114380E0,2.458951584E1,1.835318436E1,3.205452952E1
1.199396000E1,9.608668671E0,2.663082092E1,1.889071655E1,3.403507468E1
1.200396600E1,1.084300186E1,2.895039734E1,1.970592133E1,3.666087193E1
1.201397300E1,1.310419968E1,3.115321655E1,2.059746735E1,3.957901732E1
1.202397900E1,1.596684677E1,3.267315582E1,2.132495453E1,4.215719385E1
1.203398500E1,1.852966736E1,3.313225113E1,2.027039749E1,4.303467964E1
1.204399200E1,1.898921173E1,3.293705704E1,1.657368484E1,4.147441281E1
1.205399800E1,1.697110840E1,3.201317825E1,1.265528320E1,3.837992047E1
1.206400354E1,1.441053314E1,3.060535583E1,1.063283890E1,3.545995677E1
1.207401054E1,1.296304321E1,2.922178299E1,1.036833893E1,3.360737334E1
1.208401654E1,1.183424057E1,2.687017319E1,1.151480484E1,3.153801179E1
1.209402254E1,1.033989807E1,2.407743073E1,1.229872467E1,2.894641240E1
1.210402954E1,9.665700073E0,2.142195282E1,1.200443665E1,2.639000416E1
1.211403554E1,9.602232056E0,1.922796524E1,1.135538635E1,2.430765943E1
1.212404154E1,1.005848328E1,1.748484009E1,1.078731766E1,2.287485390E1
1.213404854E1,1.079884369E1,1.707020233E1,1.031011002E1,2.267829802E1
1.214405454E1,8.809330902E0,1.640244095E1,8.048313446E0,2.028348415E1
1.215406154E1,5.917344818E0,1.446322357E1,4.761448517E0,1.633619288E1
1.216406754E1,4.152365112E0,1.229707809E1,2.849474487E0,1.328833212E1
1.217407354E1,3.200644226E0,1.027253815E1,2.636617126E0,1.107794716E1
1.218408054E1,2.549498291E0,8.317453766E0,3.200045471E0,9.269318729E0
1.219408654E1,1.924248505E0,6.633006592E0,3.974983978E0,7.968689126E0
1.220409254E1,1.388512573E0,5.124892731E0,4.672832794E0,7.073037466E0
1.221409954E1,8.535250854E-1,3.598666534E0,5.209766235E0,6.389097755E0
1.222410554E1,4.020639038E-1,2.319875793E0,5.078040161E0,5.597318193E0
1.223411154E1,3.820056152E-1,1.429078217E0,4.452490997E0,4.691787391E0
1.224411854E1,3.415896606E-1,3.793112183E-1,3.583248596E0,3.619424125E0
1.225412454E1,-1.423539734E-1,-9.662406921E-1,2.719544678E0,2.889603603E0
1.226413154E1,-8.378077698E-1,-2.419867859E0,1.985620880E0,3.240427841E0
1.227413754E1,-1.342258759E0,-3.577261047E0,1.387913818E0,4.065065798E0
1.228414354E1,-1.480870514E0,-4.458628235E0,9.833052063E-1,4.799920035E0
1.229415054E1,-1.799108734E0,-5.208119659E0,6.610253906E-1,5.549617752E0
1.230415654E1,-2.504591675E0,-5.801336060E0,-6.137237549E-3,6.318901582E0
1.231416254E1,-3.117716675E0,-6.130800934E0,-9.219328308E-1,6.939512771E0
1.232416954E1,-3.527115326E0,-6.204896851E0,-1.798659668E0,7.360466293E0
1.233417554E1,-3.877536621E0,-5.964945831E0,-2.525099030E0,7.549304215E0
1.234418154E1,-4.038451996E0,-5.390889587E0,-2.856809235E0,7.316566413E0
1.235418854E1,-3.968697052E0,-4.756359100E0,-2.980152740E0,6.874214031E0
1.236419454E1,-3.862717438E0,-4.315825195E0,-2.935246124E0,6.493273668E0
1.237420154E1,-3.558100891E0,-3.912863159E0,-2.317031708E0,5.774012122E0
1.238420754E1,-3.278332672E0,-3.579057312E0,-1.226848755E0,5.006223549E0
1.239421354E1,-2.965183868E0,-3.516188049E0,-5.180726624E-1,4.628638359E0
1.240422054E1,-2.512674866E0,-3.511098633E0,-2.043251038E-1,4.322394861E0
1.241422654E1,-2.025737457E0,-3.228186951E0,5.418731689E-2,3.811527187E0
1.242423254E1,-1.534758453E0,-2.810705109E0,8.921447754E-2,3.203670698E0
1.243423954E1,-1.142424316E0,-2.461930389E0,2.724334717E-2,2.714217523E0
1.244424554E1,-5.528004456E-1,-2.136058044E0,-3.502716064E-2,2.206707775E0
1.245425154E1,-3.071612549E-1,-1.819765778E0,-2.594105530E-1,1.863649473E0
1.246425854E1,-3.233276367E-1,-1.541644135E0,-1.802252197E-1,1.585461614E0
1.247426454E1,-1.805245972E-1,-1.409319305E0,-6.676116943E-2,1.422401873E0
1.248427154E1,-3.064128113E-1,-1.509311371E0,5.089416504E-2,1.540941219E0
1.249427754E1,-5.809419250E-1,-1.788929901E0,4.692741394E-1,1.938551503E0
1.250428354E1,-9.264234924E-1,-1.965562592E0,1.003962250E0,2.393666014E0
1.251429054E1,-1.160536652E0,-1.912872162E0,1.494492188E0,2.690619283E0
1.252429654E1,-1.118025055E0,-1.709445190E0,1.920206909E0,2.803458125E0
1.253430254E1,-9.557624817E-1,-1.103056183E0,1.841171265E0,2.349494944E0
1.254430954E1,-9.036708069E-1,3.143463135E-3,1.244961090E0,1.538362416E0
1.255431554E1,-5.906716919E-1,1.460213470E0,4.751119995E-1,1.645250084E0
1.256432154E1,1.011895752E-1,3.588487701E0,-1.131646729E-1,3.591697309E0
1.257432854E1,5.445675659E-1,6.638844452E0,4.784051514E-1,6.678299258E0
1.258433454E1,1.014889526E0,1.000264938E1,2.096839600E0,1.027033260E1
1.259434154E1,2.665806427E0,1.272099655E1,5.246290283E0,1.401619916E1
1.260434754E1,5.335804138E0,1.523307266E1,9.694140930E0,1.882800247E1
1.261435354E1,9.036259003E0,1.835198685E1,1.411744263E1,2.485460892E1
1.262436054E1,1.285631516E1,2.129546585E1,1.726569580E1,3.028012478E1
1.263436654E1,1.558588898E1,2.368554565E1,1.920850571E1,3.424750647E1
1.264437254E1,1.704250992E1,2.536744812E1,1.951776260E1,3.626151714E1
1.265437954E1,1.740340942E1,2.604553802E1,1.790142380E1,3.607921402E1
1.266438554E1,1.658356430E1,2.654190582E1,1.558035049E1,3.496047327E1
1.267439154E1,1.545730637E1,2.639925247E1,1.296573761E1,3.322588152E1
1.268439854E1,1.407463165E1,2.579031876E1,1.140014328E1,3.151506092E1
1.269440454E1,1.207853256E1,2.463322495E1,1.116034195E1,2.961823682E1
1.270441154E1,1.030741562E1,2.306373871E1,1.036474640E1,2.730580209E1
1.271441754E1,8.445287933E0,2.111269592E1,9.862690430E0,2.478591293E1
1.272442354E1,7.510781250E0,1.910522049E1,1.181433197E1,2.368543276E1
1.273443054E1,7.769593048E0,1.861379242E1,1.566687057E1,2.553998195E1
1.274443654E1,7.543413391E0,1.875928986E1,1.923185715E1,2.790480910E1
1.275444254E1,7.407645721E0,1.880689087E1,2.123738663E1,2.931891795E1
1.276444954E1,7.013665009E0,1.881287842E1,2.222024277E1,2.994753879E1
1.277445554E1,7.092700653E0,1.875105698E1,2.211546066E1,2.984965897E1
1.278446154E1,7.464377747E0,1.861019989E1,2.042592407E1,2.862297765E1
1.279446854E1,7.667954407E0,1.815544556E1,1.833611984E1,2.691897136E1
1.280447454E1,7.368427277E0,1.706556198E1,1.720103027E1,2.532592681E1
1.281448154E1,6.714586945E0,1.530013321E1,1.712648529E1,2.392689392E1
1.282448754E1,5.875132599E0,1.320913147E1,1.800306244E1,2.308914451E1
1.283449354E1,4.621339874E0,1.079091019E1,1.798854263E1,2.147994858E1
1.284450054E1,2.908451843E0,8.368198242E0,1.671499100E1,1.891763088E1
1.285450654E1,1.102307739E0,6.083948364E0,1.524609558E1,1.645214091E1
1.286451254E1,-1.823208618E-1,4.263434143E0,1.359817245E1,1.425203163E1
1.287451954E1,-2.285746765E-1,3.452869720E0,1.208601700E1,1.257164916E1
1.288452554E1,8.294252014E-1,3.042123871E0,1.038824753E1,1.085624938E1
1.289453154E1,1.879491577E0,1.981728973E0,8.411308594E0,8.843633335E0
1.290453854E1,2.560275879E0,8.280780029E-1,6.541995850E0,7.073785087E0
1.291454454E1,2.855761414E0,-3.785627747E-1,4.798571320E0,5.596871424E0
1.292455054E1,2.781216431E0,-1.692380676E0,2.861898651E0,4.334718108E0
1.293455754E1,1.942959595E0,-2.950963440E0,9.535171509E-1,3.659572676E0
1.294456354E1,7.506889343E-1,-4.082161102E0,-8.876541138E-1,4.244467336E0
1.295457054E1,-4.221221924E-1,-4.865482178E0,-2.814896393E0,5.636909230E0
1.296457654E1,-1.555415497E0,-5.246439972E0,-4.467459869E0,7.064180592E0
1.297458254E1,-2.362088013E0,-5.279072113E0,-5.773943024E0,8.172299566E0
1.298458954E1,-2.411485291E0,-4.856351166E0,-6.969656525E0,8.830374852E0
1.299459554E1,-1.845063171E0,-4.187392273E0,-7.620203705E0,8.888532874E0
1.300460154E1,-1.584305420E0,-3.863316193E0,-7.529342651E0,8.609659484E0
1.301460854E1,-1.312470703E0,-3.249442749E0,-5.915847931E0,6.875951881E0
1.302461454E1,-5.716612244E-1,-1.722767487E0,-4.977149963E0,5.297805784E0
1.303462154E1,1.187031555E-1,-1.030756531E0,-3.784729614E0,3.924376093E0
1.304462754E1,3.215313721E-1,-1.186732178E0,-2.664159851E0,2.934188712E0
1.305463354E1,1.239422607E-1,-1.483564911E0,-1.851499786E0,2.375789971E0
1.306464025E1,-4.583468628E-1,-1.963017883E0,-1.413660278E0,2.462104068E0
1.307464625E1,-1.123862915E0,-2.390229492E0,-1.101858673E0,2.861880049E0
1.308465225E1,-1.682351532E0,-2.676134949E0,-1.136436768E0,3.359091167E0
1.309465925E1,-2.122436371E0,-2.815195770E0,-1.318907318E0,3.764250242E0
1.310466525E1,-2.445614319E0,-2.988086243E0,-1.182241516E0,4.038240185E0
1.311467125E1,-2.009720764E0,-2.754721527E0,-9.339079285E-1,3.535484728E0
1.312467825E1,-1.140178986E0,-2.349364471E0,-8.460406494E-1,2.745051242E0
1.313468425E1,-7.204518127E-1,-2.156116333E0,-1.092727661E0,2.522289079E0
1.314469025E1,-4.370910645E-1,-2.016007690E0,-1.489402771E0,2.544338071E0
1.315469725E1,-4.352947998E-1,-2.056423645E0,-1.772164764E0,2.749350418E0
1.316470325E1,-3.543132019E-1,-2.105671234E0,-1.970801697E0,2.905761263E0
1.317471025E1,9.774673462E-2,-2.083068237E0,-1.849553833E0,2.787396112E0
1.318471625E1,2.751278687E-1,-1.898951111E0,-1.471440125E0,2.418025373E0
1.319472225E1,7.568261719E-1,-1.150806885E0,-1.180145874E0,1.813804461E0
1.320472925E1,1.249002686E0,-2.594105530E-1,-1.737287292E0,2.155334935E0
1.321473525E1,1.479972382E0,4.659809875E-1,-2.996019745E0,3.373957742E0
1.322474125E1,1.502126312E0,1.640438690E0,-4.161047058E0,4.718234328E0
1.323474825E1,1.628912659E0,3.265758820E0,-4.811294861E0,6.038799165E0
1.324475425E1,1.971699829E0,5.278623047E0,-4.593647461E0,7.270010900E0
1.325476025E1,2.381248169E0,7.484436035E0,-3.049159241E0,8.425229830E0
1.326476725E1,3.817960510E0,1.009710297E1,5.119354248E-1,1.080696019E1
1.327477325E1,7.102280731E0,1.302755905E1,6.184090118E0,1.607490768E1
1.328478025E1,1.113833771E1,1.634032013E1,1.266441422E1,2.348310065E1
1.329478625E1,1.399065628E1,1.910596893E1,1.836605759E1,2.996812612E1
1.330479225E1,1.533860321E1,2.084235809E1,2.138108780E1,3.356825219E1
1.331479925E1,1.599064728E1,2.244747025E1,2.309292801E1,3.595654384E1
1.332480525E1,1.584170700E1,2.345427658E1,2.250809418E1,3.616181790E1
1.333481125E1,1.489597366E1,2.435195984E1,1.915865936E1,3.437967725E1
1.334481825E1,1.287622375E1,2.524170959E1,1.622520950E1,3.265269460E1
1.335482425E1,1.098864899E1,2.621079437E1,1.493219833E1,3.210493257E1
1.336483025E1,1.007779312E1,2.699127136E1,1.478146179E1,3.238181985E1
1.337483725E1,1.008168503E1,2.739767624E1,1.513143402E1,3.288211264E1
1.338484325E1,1.034738251E1,2.664728668E1,1.586221436E1,3.269183471E1
1.339484925E1,1.062236069E1,2.465537888E1,1.596639771E1,3.123536633E1
1.340485625E1,9.763297119E0,2.221275833E1,1.466874619E1,2.835314300E1
1.341486225E1,8.290509796E0,2.032428543E1,1.333472031E1,2.568314421E1
1.342486825E1,7.139253845E0,1.902543640E1,1.274928772E1,2.398917491E1
1.343487525E1,5.934409332E0,1.765773056E1,1.245619720E1,2.240913902E1
1.344488125E1,4.184697876E0,1.606953323E1,1.149624344E1,2.019666329E1
1.345488825E1,2.572550354E0,1.465886673E1,1.091305618E1,1.845522106E1
1.346489425E1,1.474134521E0,1.344878311E1,1.045321243E1,1.709714859E1
1.347490025E1,6.423143005E-1,1.209649521E1,1.052476364E1,1.604706870E1
1.348490725E1,3.683839417E-1,1.090302704E1,1.078612015E1,1.534118943E1
1.349491325E1,1.682501221E-1,9.579629059E0,1.068148773E1,1.434892962E1
1.350491925E1,-1.736389160E-2,8.523874512E0,1.018826340E1,1.328372874E1
1.351492625E1,-3.242257690E-1,7.573201447E0,9.656569061E0,1.227631168E1
1.352493225E1,-4.731660461E-1,6.492598572E0,8.623417511E0,1.080467732E1
1.353493825E1,-4.824467468E-1,5.539380798E0,7.282056885E0,9.162196623E0
1.354494525E1,-4.683760071E-1,4.589905243E0,5.987997894E0,7.559280720E0
1.355495125E1,-3.158432007E-1,3.722908173E0,4.668192444E0,5.979282807E0
1.356495825E1,-1.282832336E-1,3.043171692E0,3.705244904E0,4.796476866E0
1.357496425E1,-1.098715210E-1,2.489622803E0,3.275787964E0,4.115954353E0
1.358497025E1,-3.082090759E-1,1.880539398E0,3.054997101E0,3.600615024E0
1.359497725E1,-4.590953064E-1,8.970845032E-1,2.697690125E0,2.879767545E0
1.360498325E1,-6.170169067E-1,1.707948303E-1,1.932930450E0,2.036197648E0
1.361498925E1,-8.354127502E-1,-3.498225403E-1,9.324110413E-1,1.299877157E0
1.362499625E1,-1.133892059E0,-8.689430237E-1,3.412902832E-2,1.428963950E0
1.363500225E1,-1.317410431E0,-1.198407898E0,-6.463558960E-1,1.894604887E0
1.364500825E1,-1.434467010E0,-1.232536926E0,-1.300046539E0,2.294986685E0
1.365501525E1,-1.285227356E0,-1.100810852E0,-1.470691681E0,2.241991951E0
1.366502125E1,-8.416996765E-1,-1.068178711E0,-1.169068909E0,1.793372861E0
1.367502825E1,-4.426295471E-1,-1.163231049E0,-9.318122864E-1,1.554767354E0
1.368503425E1,-5.671705627E-1,-1.453926544E0,-9.680369568E-1,1.836485881E0
1.369504025E1,-1.032702484E0,-2.001637573E0,-9.175918579E-1,2.432077756E0
1.370504725E1,-1.402134247E0,-2.853815460E0,-9.252259827E-1,3.311538350E0
1.371505325E1,-2.030527496E0,-4.010310516E0,-1.486259308E0,4.734405885E0
1.372505925E1,-2.388433228E0,-4.585863647E0,-1.735940094E0,5.454195329E0
1.373506625E1,-1.778302002E0,-4.289030914E0,-1.629661102E0,4.920766150E0
1.374507225E1,-1.544188843E0,-4.005071411E0,-2.013013916E0,4.741027443E0
1.375507825E1,-3.694317627E-1,-3.090024261E0,-1.906585236E0,3.649629711E0
1.376508525E1,1.373094635E0,-1.273851013E0,-1.583257599E0,2.452506861E0
1.377509125E1,1.858834534E0,-4.056564331E-2,-1.561852112E0,2.428228452E0
1.378509825E1,1.775308228E0,5.965095520E-1,-1.839225311E0,2.624936703E0
1.379510425E1,1.778002625E0,9.729766846E-1,-2.036065979E0,2.872897776E0
1.380511025E1,2.002535706E0,1.417552185E0,-1.502126312E0,2.876801506E0
1.381511725E1,2.338736572E0,1.452130280E0,-6.024971008E-1,2.818044332E0
1.382512325E1,2.523302765E0,1.089584198E0,1.039588165E0,2.938536051E0
1.383512925E1,2.328408051E0,9.321116638E-1,2.733914795E0,3.710068235E0
1.384513625E1,2.324815521E0,1.015039215E0,3.904480591E0,4.656183040E0
1.385514225E1,2.617606659E0,1.516346741E0,4.238885193E0,5.207621313E0
1.386514825E1,2.931054840E0,2.639760590E0,3.905678101E0,5.551012509E0
1.387515525E1,2.991529083E0,3.987707520E0,3.001109161E0,5.818738155E0
1.388516125E1,2.999163208E0,4.834197235E0,2.327958984E0,6.146855773E0
1.389516825E1,3.898942108E0,5.680686951E0,3.299887848E0,7.639451132E0
1.390517425E1,6.596033478E0,7.136409760E0,5.660478973E0,1.124620043E1
1.391518025E1,9.829309845E0,9.034612427E0,7.770341492E0,1.544725738E1
1.392518725E1,1.278087204E1,1.050335815E1,9.293274536E0,1.897461921E1
1.393519325E1,1.230561035E1,1.126766876E1,8.219707031E0,1.859978465E1
1.394519925E1,1.025367737E1,1.152393585E1,7.157964935E0,1.700515978E1
1.395520625E1,1.002031265E1,1.220427109E1,1.050994446E1,1.896865390E1
1.396521225E1,1.190040298E1,1.429916473E1,1.412492706E1,2.335806644E1
1.397521825E1,1.468506226E1,1.836725510E1,1.575937820E1,2.830839301E1
1.398522525E1,1.603016510E1,2.024450134E1,1.359263397E1,2.918159910E1
1.399523125E1,1.687890015E1,2.137330399E1,1.064047302E1,2.923927256E1
1.400523725E1,1.886182663E1,2.220946518E1,1.102592148E1,3.115445059E1
1.401524425E1,1.899340302E1,2.142554535E1,1.145986908E1,3.084042722E1
1.402525025E1,1.664269135E1,1.919608154E1,1.033555710E1,2.742795039E1
1.403525625E1,1.391641068E1,1.621562943E1,9.308243408E0,2.330786389E1
1.404526325E1,1.134535721E1,1.363050522E1,8.517737274E0,1.967383163E1
1.405526925E1,9.214089203E0,1.157033936E1,7.634573822E0,1.664508666E1
1.406527717E1,7.943231964E0,1.025083328E1,7.204069061E0,1.483486192E1
1.407528317E1,7.438780975E0,9.783355408E0,6.994055786E0,1.414094487E1
1.408528917E1,8.115673370E0,1.029364426E1,8.050708466E0,1.538301574E1
1.409529617E1,9.192833405E0,1.104807541E1,9.396859131E0,1.717175349E1
1.410530217E1,1.000863693E1,1.155237671E1,9.261091461E0,1.787171049E1
1.411530817E1,1.005938141E1,1.174457703E1,8.628207550E0,1.770797022E1
1.412531517E1,9.272767181E0,1.133457962E1,8.906927948E0,1.714031131E1
1.413532117E1,7.747888184E0,1.017239639E1,9.345964966E0,1.583838631E1
1.414532817E1,5.983207855E0,9.523346100E0,9.552086334E0,1.475585479E1
1.415533417E1,4.662803650E0,9.101373596E0,9.601633301E0,1.402740536E1
1.416534017E1,4.368964691E0,9.734257507E0,9.781708832E0,1.447499393E1
1.417534717E1,7.884703674E0,1.114477432E1,1.157363251E1,1.789758409E1
1.418535317E1,1.243494141E1,1.253942413E1,1.246832199E1,2.161767746E1
1.419535917E1,1.324655365E1,1.302486465E1,1.028780640E1,2.123575389E1
1.420536617E1,1.307860291E1,1.287622375E1,8.298892365E0,2.014245781E1
1.421537217E1,1.310539719E1,1.165461411E1,5.300627289E0,1.832152054E1
1.422537817E1,1.051772827E1,9.995164948E0,4.226610718E0,1.511258312E1
1.423538517E1,8.791517944E0,8.656199341E0,3.989952850E0,1.296689240E1
1.424539117E1,7.179520111E0,6.918462982E0,3.680845642E0,1.062822957E1
1.425539717E1,5.368136902E0,5.762866058E0,4.005370789E0,8.835752043E0
1.426540417E1,4.962480469E0,5.219496002E0,4.274211731E0,8.374857422E0
1.427541017E1,4.725523224E0,4.859344940E0,4.482428741E0,8.126251929E0
1.428541717E1,4.195924530E0,4.410877533E0,5.323230286E0,8.086927967E0
1.429542317E1,3.878584442E0,4.364923096E0,5.792354736E0,8.224800563E0
1.430542917E1,4.535867615E0,4.185296631E0,5.267097015E0,8.113760773E0
1.431543617E1,4.473597107E0,4.549339600E0,4.937931519E0,8.068006541E0
1.432544217E1,4.522994385E0,5.035528564E0,4.007167053E0,7.865838412E0
1.433544817E1,4.129013672E0,5.377567291E0,2.941682739E0,7.390567043E0
1.434545517E1,3.907773743E0,5.410798187E0,2.227817230E0,7.036377069E0
1.435546117E1,3.737577667E0,4.981041870E0,1.732048187E0,6.463764836E0
1.436546717E1,3.622317352E0,4.621938629E0,1.179247742E0,5.989501225E0
1.437547417E1,3.221900024E0,4.027674408E0,1.023122406E0,5.258286828E0
1.438548017E1,2.472558289E0,3.254532166E0,1.315015411E0,4.293575391E0
1.439548617E1,2.165397034E0,2.507435760E0,1.328487396E0,3.569461748E0
1.440549317E1,2.084415436E0,1.825304260E0,1.345402222E0,3.080037417E0
1.441549917E1,1.943558350E0,1.497635651E0,1.221160583E0,2.740723403E0
1.442550617E1,1.494043121E0,1.113085327E0,6.908134460E-1,1.987044793E0
1.443551217E1,8.318202209E-1,8.189469910E-1,-1.598675537E-1,1.178200615E0
1.444551817E1,3.838018799E-1,7.494914246E-1,-1.166075134E0,1.438322807E0
1.445552517E1,-8.232879639E-3,6.276448059E-1,-1.772613831E0,1.880469509E0
1.446553117E1,-3.478765869E-1,7.479945374E-1,-2.356250153E0,2.496483272E0
1.447553717E1,-3.445834351E-1,1.332079926E0,-2.682421875E0,3.014724164E0
1.448554417E1,2.245330811E-2,1.773212585E0,-2.338736572E0,2.935042722E0
1.449555017E1,3.710783386E-1,2.140997772E0,-1.843266907E0,2.849421605E0
1.450555617E1,5.345384216E-1,2.561772766E0,-1.255888367E0,2.902699884E0
1.451556317E1,6.484515381E-1,2.917283478E0,-1.014889526E0,3.156110429E0
1.452556917E1,2.881507874E-1,3.113076324E0,-1.307980042E0,3.388965457E0
1.453557517E1,-2.050735474E-1,3.295397186E0,-1.964365082E0,3.841930237E0
1.454558217E1,-5.514532471E-1,3.504961395E0,-2.080822906E0,4.113232188E0
1.455558817E1,-8.271798706E-1,3.831881561E0,-2.120640106E0,4.456978494E0
1.456559517E1,-8.623567200E-1,4.280348969E0,-1.987866211E0,4.797567975E0
1.457560117E1,-7.340734863E-1,4.617747345E0,-1.514400787E0,4.914861562E0
1.458560717E1,-4.939727783E-1,4.890779572E0,-1.069076843E0,5.030572454E0
1.459561417E1,-2.133064270E-1,4.988376617E0,-7.029382324E-1,5.042174438E0
1.460562017E1,5.822891235E-2,5.153632965E0,-4.793032837E-1,5.176200825E0
1.461562617E1,1.017883301E-2,5.184618530E0,-5.942642212E-1,5.218574794E0
1.462563317E1,-2.115101624E-1,5.206473083E0,-7.644602966E-1,5.266545173E0
1.463563917E1,2.200424194E-2,5.137017517E0,-7.819738770E-1,5.196240593E0
1.464564517E1,5.798941040E-1,5.306315460E0,-3.668870544E-1,5.350501570E0
1.465565217E1,8.803193665E-1,5.669160919E0,1.258882141E-1,5.738483733E0
1.466565817E1,8.075706482E-1,5.891598358E0,3.249742126E-1,5.955561250E0
1.467566417E1,2.866539001E-1,5.895490265E0,1.294807434E-1,5.903875099E0
1.468567117E1,-4.300556946E-1,5.772895203E0,-2.661465454E-1,5.795006549E0
1.469567717E1,-8.291258240E-1,5.413492584E0,-5.409750366E-1,5.503272261E0
1.470568417E1,-8.535250854E-1,5.014422455E0,-7.520361328E-1,5.141837801E0
1.471569017E1,-1.211430817E0,5.124743042E0,-1.101259918E0,5.379900490E0
1.472569617E1,-1.149160309E0,5.435796204E0,-7.343728638E-1,5.604262064E0
1.473570317E1,-5.345384216E-1,5.510341187E0,4.776567078E-1,5.556774896E0
1.474570917E1,-5.001100159E-1,5.745053101E0,1.222956848E0,5.895029144E0
1.475571517E1,-3.002755737E-1,6.281836853E0,1.459315338E0,6.456101062E0
1.476572217E1,5.020559692E-1,6.597530365E0,1.839075623E0,6.867435202E0
1.477572817E1,1.146615601E0,6.720424805E0,1.650767212E0,7.014546976E0
1.478573417E1,1.690434723E0,6.804250488E0,8.598120117E-1,7.063615997E0
1.479574117E1,2.123783569E0,7.565417633E0,1.833686829E-1,7.860001570E0
1.480574717E1,2.683619385E0,8.649463348E0,8.595126343E-1,9.096911079E0
1.481575317E1,2.975063324E0,9.071136475E0,3.041525116E0,1.001935096E1
1.482576017E1,3.439098358E0,9.457183685E0,5.536237335E0,1.148545361E1
1.483576617E1,3.944148102E0,1.049886749E1,8.234825592E0,1.391383755E1
1.484577317E1,4.045936432E0,1.082683548E1,1.003588028E1,1.530715065E1
1.485577917E1,4.149670715E0,1.023092468E1,9.935588837E0,1.485286210E1
1.486578517E1,4.455185394E0,9.801767120E0,8.247100067E0,1.356237351E1
1.487579217E1,4.453089752E0,9.998158722E0,5.988596649E0,1.247623645E1
1.488579817E1,4.403542786E0,1.144564865E1,4.187991028E0,1.295890933E1
1.489580417E1,5.128934326E0,1.355685837E1,4.583318939E0,1.520201265E1
1.490581117E1,5.892646179E0,1.463865875E1,7.163054352E0,1.732982853E1
1.491581717E1,6.265969849E0,1.488953705E1,1.059586578E1,1.931924076E1
1.492582317E1,6.348148956E0,1.451471649E1,1.231504074E1,2.006579723E1
1.493583017E1,6.160439301E0,1.418914352E1,1.161344971E1,1.934308715E1
1.494583617E1,5.916596375E0,1.425665314E1,9.637558594E0,1.819727471E1
1.495584217E1,6.006858673E0,1.416429520E1,7.799231415E0,1.724927883E1
1.496584917E1,6.290219421E0,1.444825470E1,7.005581818E0,1.724520516E1
1.497585517E1,6.400839386E0,1.485705460E1,7.196135559E0,1.770556927E1
1.498586117E1,6.371500397E0,1.514146317E1,7.729326782E0,1.815495570E1
1.499586817E1,6.316414948E0,1.532977158E1,8.125552826E0,1.846411663E1
1.500587417E1,6.172115021E0,1.527753021E1,7.651638336E0,1.816715450E1
1.501588117E1,5.758375397E0,1.507006165E1,6.737339630E0,1.748306010E1
1.502588717E1,5.534441071E0,1.485615646E1,5.795647888E0,1.687972030E1
1.503589317E1,5.803431702E0,1.468850510E1,5.286406860E0,1.665467199E1
1.504590017E1,5.815556488E0,1.411878983E1,5.037624207E0,1.607913496E1
1.505590617E1,5.170697479E0,1.347587677E1,5.698200531E0,1.551788827E1
1.506591200E1,4.543651428E0,1.208257416E1,8.482111359E0,1.544602148E1
1.507591900E1,4.994513855E0,1.226294907E1,1.137035522E1,1.745308186E1
1.508592500E1,4.423900452E0,1.284987854E1,1.120824234E1,1.761575914E1
1.509593100E1,3.242407379E0,1.175340866E1,1.043899200E1,1.605080605E1
1.510593800E1,1.823507996E0,1.175176208E1,9.927056580E0,1.549114411E1
1.511594400E1,2.741848297E0,1.176433594E1,9.383836212E0,1.529619934E1
1.512595100E1,3.610342255E0,1.132410141E1,9.238638153E0,1.505397884E1
1.513595700E1,3.611240387E0,1.098430801E1,8.325986023E0,1.424844282E1
1.514596300E1,3.928879852E0,1.093730576E1,7.094347229E0,1.361581862E1
1.515597000E1,4.438569946E0,1.111124405E1,6.126160583E0,1.344211631E1
1.516597600E1,4.586013336E0,1.121422989E1,5.674549713E0,1.337875124E1
1.517598200E1,4.516108704E0,1.123264160E1,5.882916412E0,1.346017016E1
1.518598900E1,3.973936157E0,1.098475708E1,6.131848755E0,1.319305218E1
1.519599500E1,2.665656738E0,1.017898270E1,6.561754761E0,1.240056612E1
1.520600100E1,4.242178345E-1,9.013206940E0,7.676187286E0,1.184659071E1
1.521600800E1,-9.502239990E-1,8.411607971E0,9.458680573E0,1.269349095E1
1.522601400E1,-4.150868225E-1,8.517587585E0,1.041204803E1,1.345854151E1
1.523602000E1,9.211843872E-1,8.991352386E0,9.535919952E0,1.313875062E1
1.524602700E1,2.326462097E0,9.741143188E0,7.212451630E0,1.234187000E1
1.525603300E1,3.092868347E0,9.526639252E0,5.721102905E0,1.153489092E1
1.526604000E1,2.653232574E0,9.090446320E0,5.426365814E0,1.091427063E1
1.527604600E1,2.006726990E0,8.661288757E0,5.009183350E0,1.020474370E1
1.528605200E1,1.158441010E0,7.890242157E0,4.774770813E0,9.294963323E0
1.529605900E1,3.324586487E-1,7.486381989E0,4.509372711E0,8.745906830E0
1.530606500E1,3.556604004E-1,7.436835022E0,4.465962982E0,8.682040936E0
1.531607100E1,6.399192810E-1,7.177424469E0,4.310286713E0,8.396635650E0
1.532607800E1,1.295705566E0,7.062762909E0,3.922443237E0,8.182116705E0
1.533608400E1,1.901346130E0,7.093598785E0,3.628155212E0,8.191322914E0
1.534609000E1,1.599723358E0,6.989265747E0,2.909799042E0,7.737950696E0
1.535609700E1,1.095721436E0,6.978637848E0,1.987267456E0,7.338339296E0
1.536610300E1,5.861810303E-1,7.086413727E0,1.508712616E0,7.268911986E0
1.537610900E1,1.167572021E-2,7.004683685E0,1.459315338E0,7.155091272E0
1.538611600E1,-7.818241882E-1,6.935826874E0,1.386267242E0,7.116086028E0
1.539612200E1,-1.376088409E0,6.752308502E0,1.112636261E0,6.980347332E0
1.540612800E1,-1.275796967E0,6.584357758E0,1.224004669E0,6.817595794E0
1.541613500E1,-8.416996765E-1,6.758445740E0,1.622326355E0,7.001213464E0
1.542614100E1,-2.083666992E-1,6.885830841E0,1.961670685E0,7.162837073E0
1.543614800E1,4.496649170E-1,6.905140686E0,2.277214508E0,7.284838526E0
1.544615400E1,9.777667236E-1,7.061116333E0,2.306852875E0,7.492460332E0
1.545616000E1,1.276246033E0,7.037615204E0,1.906734924E0,7.402193578E0
1.546616700E1,1.230590973E0,6.863826599E0,1.406924286E0,7.113782796E0
1.547617300E1,9.487271118E-1,6.583309937E0,7.566764832E-1,6.694222296E0
1.548617900E1,1.082848206E0,6.599326630E0,1.917512512E-1,6.690324412E0
1.549618600E1,1.615740051E0,7.167095947E0,3.577560425E-2,7.347051118E0
1.550619200E1,1.935624847E0,7.613767090E0,-1.884580994E-1,7.858219220E0
1.551619800E1,1.783690796E0,7.917934570E0,-5.899232483E-1,8.137766902E0
1.552620500E1,1.350042572E0,7.837851105E0,-1.117276611E0,8.031365507E0
1.553621100E1,7.069798279E-1,7.445067902E0,-1.852996674E0,7.704703317E0
1.554621800E1,-2.775228882E-1,6.862778778E0,-2.585124207E0,7.338775012E0
1.555622400E1,-9.497749329E-1,6.270909576E0,-2.791694641E0,6.929642004E0
1.556623000E1,-1.281185760E0,5.931565247E0,-2.418221283E0,6.532434263E0
1.557623700E1,-1.169218597E0,5.985453186E0,-1.758543091E0,6.347061980E0
1.558624300E1,-7.533833313E-1,6.092330933E0,-1.106349335E0,6.237635088E0
1.559624900E1,-7.349716187E-1,5.963598633E0,-8.196954346E-1,6.064370746E0
1.560625600E1,-9.053173828E-1,5.913602600E0,-9.981243896E-1,6.065191470E0
1.561626200E1,-1.033151550E0,5.997877350E0,-1.219963074E0,6.207273534E0
1.562626800E1,-1.264720001E0,5.928571472E0,-1.229692841E0,6.185436190E0
1.563627500E1,-1.519340515E0,5.647156677E0,-1.033151550E0,5.938533174E0
1.564628100E1,-1.655706940E0,5.360502777E0,-3.754193115E-1,5.622925853E0
1.565628700E1,-1.722168732E0,5.218897247E0,-1.227447510E-2,5.495716903E0
1.566629400E1,-1.773811340E0,5.126838684E0,4.281097412E-2,5.425192563E0
1.567630000E1,-1.979483643E0,5.147795105E0,-2.344125366E-1,5.520244485E0
1.568630700E1,-1.996697845E0,5.117707672E0,-5.319937134E-1,5.519125965E0
1.569631300E1,-2.091600494E0,5.048102417E0,-6.457571411E-1,5.502284337E0
1.570631900E1,-2.070045319E0,4.862039337E0,-7.949967957E-1,5.343831401E0
1.571632600E1,-2.478695526E0,4.477938080E0,-5.586383057E-1,5.148585992E0
1.572633200E1,-1.962419128E0,5.551954651E0,-1.707948303E-1,5.891049156E0
1.573633800E1,-7.283853149E-1,6.294410706E0,-2.389031982E-1,6.340916813E0
1.574634500E1,-2.481838989E-1,6.115083618E0,3.857478333E-1,6.132262576E0
1.575635100E1,-3.915856934E-1,6.088139648E0,5.533992004E-1,6.125768067E0
1.576635700E1,-5.051994324E-1,6.082750854E0,5.748046875E-2,6.103964976E0
1.577636400E1,-1.118474121E0,6.219716034E0,5.718109131E-2,6.319740626E0
1.578637000E1,-1.423988800E0,6.100713501E0,-5.837860107E-3,6.264701382E0
1.579637600E1,-1.350042572E0,6.185587006E0,-2.821632385E-1,6.337485120E0
1.580638300E1,-1.061742096E0,6.413562927E0,-4.608915710E-1,6.517170148E0
1.581638900E1,-7.711962891E-1,6.658453674E0,-5.911207581E-1,6.728980071E0
1.582639500E1,-4.507127380E-1,7.032076721E0,-5.152285767E-1,7.065317082E0
1.583640200E1,-1.911524963E-1,7.668702850E0,-1.413061523E-1,7.672386207E0
1.584640800E1,-1.927990723E-1,8.029752045E0,1.794767761E-1,8.034071278E0
1.585641500E1,-3.203338623E-2,8.359366608E0,3.439846802E-1,8.366502356E0
1.586642100E1,4.076023865E-1,8.809480591E0,5.366340637E-1,8.835217264E0
1.587642700E1,1.110091553E0,9.126820679E0,1.121467896E0,9.262227011E0
1.588643400E1,1.504072266E0,9.264983368E0,1.628014526E0,9.526414934E0
1.589644000E1,1.499880981E0,9.504185944E0,1.814676361E0,9.791437264E0
1.590644600E1,1.121018829E0,9.492809601E0,1.850302277E0,9.736207467E0
1.591645300E1,5.830375671E-1,9.003776550E0,1.916464691E0,9.223923346E0
1.592645900E1,9.250762939E-2,8.456963654E0,1.954485626E0,8.680368999E0
1.593646500E1,2.005828857E-2,8.468789062E0,1.993255005E0,8.700221608E0
1.594647200E1,6.795867920E-1,9.301208038E0,1.820813599E0,9.502087736E0
1.595647800E1,1.615590363E0,1.043809387E1,2.145488434E0,1.077808223E1
1.596648400E1,1.961520996E0,1.039707916E1,2.855012970E0,1.095891960E1
1.597649100E1,2.267484741E0,1.023062531E1,3.597768402E0,1.107931039E1
1.598649700E1,2.171085205E0,1.041593994E1,3.664828949E0,1.125328339E1
1.599650400E1,1.337319031E0,9.929601288E0,3.246149597E0,1.053199369E1
1.600651000E1,8.271798706E-1,9.595496063E0,2.933898926E0,1.006804520E1
1.601651600E1,9.083111572E-1,9.932744751E0,2.558329926E0,1.029706266E1
1.602652300E1,1.304686890E0,1.023451721E1,2.108066254E0,1.053050302E1
1.603652900E1,1.648222504E0,1.040561142E1,2.026934967E0,1.072855311E1
1.604653500E1,1.887125702E0,1.073956696E1,2.787802734E0,1.125483833E1
1.605654200E1,2.234253845E0,1.077579163E1,4.228257294E0,1.178930597E1
1.606654804E1,2.406994629E0,1.036639297E1,5.191354523E0,1.184085674E1
1.607655404E1,2.028132477E0,9.903705139E0,5.053042145E0,1.130176675E1
1.608656104E1,1.536255341E0,9.895472260E0,4.308191071E0,1.090142018E1
1.609656704E1,1.642684021E0,1.027343628E1,3.167113953E0,1.087531676E1
1.610657304E1,2.331701202E0,1.076157120E1,1.942360840E0,1.118127948E1
1.611658004E1,3.202590179E0,1.126991409E1,1.541045380E0,1.181703721E1
1.612658604E1,3.345393219E0,1.111872849E1,2.737956390E0,1.192955088E1
1.613659304E1,3.224444733E0,1.076860657E1,3.781735840E0,1.186007830E1
1.614659904E1,3.518134003E0,1.074540482E1,4.551734619E0,1.218848963E1
1.615660504E1,3.726351013E0,1.092024124E1,5.258564758E0,1.268029432E1
1.616661204E1,3.934268646E0,1.083551743E1,5.276527405E0,1.267788031E1
1.617661804E1,4.151916046E0,1.070274353E1,4.661755829E0,1.239028221E1
1.618662404E1,4.605921936E0,1.089045319E1,3.541635132E0,1.234340581E1
1.619663104E1,5.027744751E0,1.106708588E1,2.598895569E0,1.243032040E1
1.620663704E1,3.863765259E0,1.042716660E1,2.977608032E0,1.151176072E1
1.621664304E1,3.633693695E0,9.969268799E0,3.177442474E0,1.107637987E1
1.622665004E1,3.958218842E0,1.016401382E1,3.623065796E0,1.149353206E1
1.623665604E1,3.547622681E0,9.969867554E0,4.595892792E0,1.153716240E1
1.624666204E1,2.933150482E0,9.543554077E0,5.492378540E0,1.139513134E1
1.625666904E1,3.160827026E0,9.678423615E0,5.849984894E0,1.174244584E1
1.626667504E1,3.630400543E0,9.854607239E0,5.673202515E0,1.193642822E1
1.627668204E1,3.741020508E0,9.754315796E0,5.047204285E0,1.160242139E1
1.628668804E1,3.717818756E0,9.624385986E0,4.318519592E0,1.118483766E1
1.629669404E1,3.692072296E0,9.600735168E0,3.838018799E0,1.097888437E1
1.630670104E1,3.524720306E0,9.312883759E0,3.720363464E0,1.062989000E1
1.631670704E1,3.279081116E0,9.065597992E0,3.703298950E0,1.032723889E1
1.632671304E1,3.083138580E0,9.005722504E0,3.998036041E0,1.032439216E1
1.633672004E1,3.113824768E0,8.941056976E0,4.315076752E0,1.040472450E1
1.634672604E1,3.539988556E0,9.167086945E0,4.383334808E0,1.076014062E1
1.635673204E1,3.946692810E0,9.556876373E0,4.069736938E0,1.111184183E1
1.636673904E1,4.256099396E0,9.708810425E0,3.705544281E0,1.122971239E1
1.637674504E1,4.690945129E0,9.836045837E0,3.646566925E0,1.149131038E1
1.638675104E1,4.743485870E0,1.001297791E1,3.682043152E0,1.167552254E1
1.639675804E1,4.480632477E0,1.014919464E1,3.760330353E0,1.171419240E1
1.640676404E1,4.449796600E0,1.017464172E1,4.143533478E0,1.185296982E1
1.641677104E1,4.353846130E0,1.011536499E1,4.647385712E0,1.195302384E1
1.642677704E1,4.260889435E0,9.847122803E0,5.041067047E0,1.185467685E1
1.643678304E1,4.201612701E0,9.494905243E0,5.153183899E0,1.159146579E1
1.644679004E1,4.181105347E0,9.472901001E0,5.232219543E0,1.160144890E1
1.645679604E1,4.096231842E0,9.424701233E0,5.108876038E0,1.147626782E1
1.646680204E1,3.744613037E0,9.375753021E0,5.195246429E0,1.135418236E1
1.647680904E1,3.521726532E0,9.267079010E0,5.310506744E0,1.124645691E1
1.648681504E1,3.573369141E0,9.265731812E0,5.148693237E0,1.118623239E1
1.649682104E1,3.725153503E0,9.369765472E0,4.912185059E0,1.121600801E1
1.650682804E1,4.075425110E0,9.596394196E0,4.561165009E0,1.137998671E1
1.651683404E1,4.387526093E0,9.751920776E0,4.152215424E0,1.147132237E1
1.652684004E1,4.369413757E0,9.661059723E0,3.950135651E0,1.131509714E1
1.653684704E1,4.311633911E0,9.314530334E0,4.194727020E0,1.108811964E1
1.654685304E1,3.979624329E0,8.985215149E0,4.514911194E0,1.081461623E1
1.655685904E1,3.470682678E0,8.761580200E0,4.418212280E0,1.040824316E1
1.656686604E1,3.269950104E0,8.925339661E0,4.248764648E0,1.041183283E1
1.657687204E1,3.482358398E0,9.474846954E0,4.211941223E0,1.093800684E1
1.658687904E1,4.246070251E0,1.013033386E1,4.319567413E0,1.180302670E1
1.659688504E1,4.777165833E0,1.067235672E1,4.416416016E0,1.249900963E1
1.660689104E1,4.839586029E0,1.072115524E1,4.112248535E0,1.246095304E1
1.661689804E1,4.762795715E0,1.049407745E1,3.559298401E0,1.206144642E1
1.662690404E1,4.737498322E0,1.028136978E1,3.187172241E0,1.176046435E1
1.663691004E1,4.583169250E0,9.980794830E0,3.093916168E0,1.141025955E1
1.664691704E1,4.461472321E0,9.634864197E0,3.254981232E0,1.110541517E1
1.665692304E1,4.201612701E0,9.462422791E0,3.601510620E0,1.096183712E1
1.666692904E1,3.946543121E0,9.366771698E0,3.793261871E0,1.084898384E1
1.667693604E1,3.854185181E0,9.459129639E0,3.887416077E0,1.092894692E1
1.668694204E1,3.759731598E0,9.695937195E0,4.084556122E0,1.117275161E1
1.669694804E1,3.679648132E0,1.001657043E1,4.491260376E0,1.157769033E1
1.670695504E1,3.506607971E0,1.036908737E1,4.946912842E0,1.201191987E1
1.671696104E1,3.340752869E0,1.046683411E1,5.321284332E0,1.220783817E1
1.672696804E1,3.129242706E0,1.033959869E1,5.639372864E0,1.218613915E1
1.673697404E1,2.975662079E0,1.029963181E1,5.651797028E0,1.211939725E1
1.674698004E1,2.960543518E0,1.041324554E1,5.587430878E0,1.218276998E1
1.675698704E1,3.000510406E0,1.055320450E1,5.433550873E0,1.224322927E1
1.676699304E1,2.982098694E0,1.068463120E1,5.136718140E0,1.222457073E1
1.677699904E1,3.005899200E0,1.086979614E1,4.716242523E0,1.222419084E1
