"Time (s)","Acceleration x (m/s^2)","Acceleration y (m/s^2)","Acceleration z (m/s^2)","Absolute acceleration (m/s^2)"
1.714541577E-3,-1.017553986E1,-6.541846161E0,3.006348267E0,1.246497062E1
1.165454159E-2,-1.172721313E1,-6.976392517E0,2.018402710E0,1.379389466E1
2.159454161E-2,-1.275452682E1,-7.765401764E0,1.206191711E0,1.498113205E1
3.153454163E-2,-1.332528992E1,-8.691076813E0,2.151326294E0,1.605385849E1
4.147454165E-2,-1.372361160E1,-9.443262634E0,2.729124756E0,1.688078335E1
5.141454167E-2,-1.384695511E1,-9.806856537E0,1.841620331E0,1.706763505E1
6.135454169E-2,-1.345866257E1,-1.011117371E1,1.372046814E0,1.688946252E1
7.129354170E-2,-1.262040573E1,-1.055979080E1,1.601968689E0,1.653330355E1
8.123354171E-2,-1.149160309E1,-1.089524323E1,1.743873596E0,1.593123855E1
9.117354173E-2,-1.084404968E1,-1.016476227E1,1.931732941E0,1.498824198E1
1.011135418E-1,-9.768386536E0,-8.026159515E0,1.472937012E0,1.272832100E1
1.110535418E-1,-8.546776886E0,-5.540428619E0,4.159849548E-1,1.019395840E1
1.209935418E-1,-8.123457184E0,-3.991150360E0,-6.601272583E-1,9.074998943E0
1.309335416E-1,-7.845934296E0,-3.701951752E0,-1.329684906E0,8.776741633E0
1.408725416E-1,-7.326514435E0,-4.522096252E0,-1.821711731E0,8.800329648E0
1.508125416E-1,-6.944508820E0,-5.985602875E0,-2.548300781E0,9.515644034E0
1.607525416E-1,-6.563850403E0,-7.376510468E0,-3.204685822E0,1.038109098E1
1.706925416E-1,-6.447242889E0,-8.180338898E0,-2.992876282E0,1.083707496E1
1.806325417E-1,-6.033802643E0,-8.668024750E0,-2.389930115E0,1.082835137E1
1.905725417E-1,-5.556595001E0,-8.652606812E0,-1.093326416E0,1.034111770E1
2.005115417E-1,-5.063370667E0,-8.368198242E0,1.189426575E0,9.852877747E0
2.104515417E-1,-5.001399536E0,-7.883057098E0,3.418141937E0,9.941844941E0
2.203915417E-1,-5.572162628E0,-7.737859039E0,3.590733032E0,1.018905406E1
2.303315417E-1,-5.750441895E0,-7.534731445E0,1.130449219E0,9.545557887E0
2.402715418E-1,-6.033203888E0,-7.675738220E0,1.779798889E-1,9.764639431E0
2.502115418E-1,-6.067482605E0,-8.098908234E0,1.304836578E0,1.020339445E1
2.601515416E-1,-5.537734222E0,-7.889793091E0,1.043629761E0,9.695591700E0
2.700905416E-1,-5.334157562E0,-7.680977325E0,-1.069525909E0,9.412467012E0
2.800305416E-1,-4.821623383E0,-9.201515350E0,-2.720442810E0,1.073856349E1
2.899705416E-1,-3.844305725E0,-1.090706863E1,-3.272644501E0,1.201886162E1
2.999105416E-1,-2.556234283E0,-1.141526184E1,-3.617826691E0,1.224463991E1
3.098505416E-1,-1.881886597E0,-1.081695602E1,-4.018244019E0,1.169163461E1
3.197905417E-1,-2.142794037E0,-9.148525543E0,-3.842359772E0,1.015139471E1
3.297295417E-1,-2.469863892E0,-8.247399445E0,-2.681523743E0,9.017227668E0
3.396695417E-1,-2.252665558E0,-8.026907959E0,-1.785337372E0,8.526029734E0
3.496095417E-1,-2.153421936E0,-8.833131409E0,-2.094444580E0,9.329958983E0
3.595495417E-1,-2.832110596E0,-9.453591156E0,-2.296524353E0,1.013238670E1
3.694895417E-1,-3.405867462E0,-9.503736877E0,-1.212628326E0,1.016815693E1
3.794295418E-1,-3.774251404E0,-9.062604218E0,4.361929321E-1,9.826801776E0
3.893695418E-1,-3.935615845E0,-8.688831482E0,1.469344482E0,9.651105523E0
3.993085416E-1,-4.059857483E0,-8.864566040E0,1.644929352E0,9.887808980E0
4.092485416E-1,-4.201163635E0,-9.202862549E0,1.450034637E0,1.021983637E1
4.191885416E-1,-4.077969818E0,-9.140442352E0,1.066232758E0,1.006550429E1
4.291285416E-1,-3.954027557E0,-9.020691376E0,7.153623962E-1,9.875168362E0
4.390685416E-1,-4.719535675E0,-7.998467102E0,4.734654236E-1,9.299121597E0
4.490085416E-1,-5.200186157E0,-6.937024384E0,-3.171903992E-1,8.675531864E0
4.589485417E-1,-5.235512695E0,-6.814129944E0,-9.361532593E-1,8.644035111E0
4.688875417E-1,-5.521118774E0,-6.935377808E0,-1.195563812E0,8.944919826E0
4.788275417E-1,-5.716462555E0,-7.160359955E0,-1.081950073E0,9.226012941E0
4.887675417E-1,-5.390889587E0,-7.392826538E0,-4.525090027E-1,9.160804504E0
4.987084167E-1,-5.078788605E0,-6.960076447E0,3.448828125E-1,8.622975240E0
5.086484167E-1,-5.067262573E0,-5.918392639E0,5.819897461E-1,7.813016926E0
5.185884167E-1,-4.597988434E0,-6.211932220E0,3.611988831E-1,7.736928601E0
5.285274168E-1,-4.130959625E0,-6.849157104E0,1.091230774E-1,7.999230483E0
5.384674168E-1,-3.750151520E0,-7.735613708E0,-1.682501221E-1,8.598352399E0
5.484074166E-1,-3.872596893E0,-8.976832581E0,-6.643185425E-1,9.799073885E0
5.583474166E-1,-4.348756714E0,-1.013437546E1,-1.109492798E0,1.108369186E1
5.682874166E-1,-4.141437836E0,-1.002585114E1,-1.398691406E0,1.093734593E1
5.782274166E-1,-3.719764709E0,-9.357940063E0,-1.097667389E0,1.012978605E1
5.881674166E-1,-4.051774292E0,-9.090895386E0,-3.177891541E-1,9.958024090E0
5.981064166E-1,-4.299509125E0,-9.458081818E0,4.610412598E-1,1.039969468E1
6.080464167E-1,-4.722080383E0,-9.989476776E0,9.183403015E-1,1.108742704E1
6.179864167E-1,-5.214256897E0,-1.056832306E1,1.341660004E0,1.186077480E1
6.279264167E-1,-5.024601288E0,-1.055335419E1,1.582060089E0,1.179503357E1
6.378664167E-1,-4.267176361E0,-9.998458099E0,1.709445190E0,1.100455185E1
6.478064167E-1,-3.624712372E0,-9.820927277E0,1.507215729E0,1.057642906E1
6.577454167E-1,-3.170556793E0,-1.024828857E1,1.303040314E0,1.080637604E1
6.676854168E-1,-2.787054291E0,-1.045411057E1,8.307723999E-1,1.085109589E1
6.776254168E-1,-2.277813263E0,-1.086710175E1,3.776646423E-1,1.110967885E1
6.875654166E-1,-2.000140686E0,-1.117396362E1,-4.954696655E-2,1.135167304E1
6.975054166E-1,-2.164349213E0,-1.089898544E1,-5.743556213E-1,1.112664260E1
7.074454166E-1,-2.248474274E0,-1.076516373E1,-1.122665405E0,1.105462637E1
7.173854166E-1,-2.426903229E0,-1.064870590E1,-1.370998993E0,1.100747178E1
7.273244166E-1,-2.668500824E0,-1.047925827E1,-1.527573395E0,1.092104533E1
7.372644166E-1,-2.786006470E0,-1.053599030E1,-1.324745178E0,1.097833655E1
7.472044167E-1,-3.185825043E0,-1.070214478E1,-6.635700989E-1,1.118596036E1
7.571444167E-1,-3.232378235E0,-1.056383240E1,-1.245410156E-1,1.104800138E1
7.670844167E-1,-3.334465942E0,-1.068283493E1,3.501219177E-1,1.119661603E1
7.770244167E-1,-3.636088715E0,-1.090018295E1,8.464897156E-1,1.152179128E1
7.869634167E-1,-3.989054718E0,-1.068118835E1,1.372795258E0,1.148411551E1
7.969034167E-1,-3.978875885E0,-1.089045319E1,1.502725067E0,1.169151857E1
8.068434168E-1,-4.027973785E0,-1.114207993E1,1.626966705E0,1.195899404E1
8.167834168E-1,-4.346361694E0,-1.123922791E1,1.642534332E0,1.216178535E1
8.267234166E-1,-4.760849762E0,-1.136631363E1,1.416953430E0,1.240429494E1
8.366634166E-1,-5.223687286E0,-1.172421936E1,1.062640228E0,1.287918603E1
8.466034166E-1,-5.661526794E0,-1.225845840E1,7.497908020E-1,1.352349342E1
8.565424166E-1,-6.030958557E0,-1.268581970E1,5.447172546E-1,1.405699824E1
8.664824166E-1,-6.261030121E0,-1.289044418E1,7.828720093E-1,1.435189667E1
8.764224167E-1,-6.465654602E0,-1.282637741E1,1.472487946E0,1.443914359E1
8.863624167E-1,-6.516698456E0,-1.233644623E1,2.865341492E0,1.424308415E1
8.963024167E-1,-6.454278259E0,-1.148561554E1,4.489015045E0,1.391863241E1
9.062424167E-1,-6.349496155E0,-1.066008224E1,5.191653900E0,1.345015707E1
9.161814167E-1,-5.593867493E0,-9.915380859E0,4.290527802E0,1.216613167E1
9.261214167E-1,-4.275708618E0,-9.471104736E0,2.816093903E0,1.076633150E1
9.360614168E-1,-3.388952637E0,-9.528435516E0,1.314716034E0,1.019826268E1
9.460014168E-1,-2.742147675E0,-9.827663269E0,-1.580712891E-1,1.020427978E1
9.559414166E-1,-2.180814972E0,-1.012883698E1,-1.403481445E0,1.045557519E1
9.658814166E-1,-2.051334229E0,-1.028511200E1,-2.354902954E0,1.074881709E1
9.758214166E-1,-2.060315552E0,-1.021475830E1,-3.032992859E0,1.085289054E1
9.857604166E-1,-1.630110168E0,-1.067924240E1,-3.473526764E0,1.134763701E1
9.957004166E-1,-1.390757904E0,-1.060275146E1,-3.614383850E0,1.128788363E1
1.005640417E0,-1.228944397E0,-1.079914307E1,-3.363206177E0,1.137729982E1
1.015580417E0,-1.480720825E0,-1.146810196E1,-2.463427277E0,1.182279031E1
1.025520417E0,-1.740430756E0,-1.225217148E1,-1.894161072E0,1.251929117E1
1.035460417E0,-1.834435272E0,-1.268611908E1,-1.979932709E0,1.297007724E1
1.045399417E0,-2.096091156E0,-1.245260468E1,-2.375110931E0,1.284920672E1
1.055339417E0,-2.604583740E0,-1.190878555E1,-2.609074402E0,1.246636671E1
1.065279417E0,-3.295995941E0,-1.104493195E1,-2.179018707E0,1.173039784E1
1.075219417E0,-3.943399658E0,-1.027732819E1,-1.715283051E0,1.114073927E1
1.085159417E0,-4.261937256E0,-9.969568176E0,-1.239272919E0,1.091293710E1
1.095099417E0,-4.293671265E0,-1.011820908E1,-6.697073364E-1,1.101191517E1
1.105039417E0,-3.874842224E0,-9.756860504E0,-2.637515259E-1,1.050144247E1
1.114978417E0,-3.441044312E0,-9.343719635E0,-4.933740234E-1,9.969418263E0
1.124918417E0,-2.841540985E0,-8.761580200E0,-1.207389221E0,9.289641086E0
1.134858417E0,-2.312391357E0,-8.462951202E0,-2.112856293E0,9.024015656E0
1.144798417E0,-1.958527222E0,-8.010442200E0,-2.512674866E0,8.620704617E0
1.154738417E0,-1.715133362E0,-7.447911987E0,-2.227817230E0,7.960919861E0
1.164678417E0,-1.377136230E0,-7.278913422E0,-1.870809631E0,7.640616040E0
1.174617417E0,-1.631756744E0,-7.402855682E0,-1.310973816E0,7.693084861E0
1.184557417E0,-2.174977112E0,-7.675887909E0,-8.632548523E-1,8.024648875E0
1.194497417E0,-2.761756897E0,-7.803273010E0,-7.837701416E-1,8.314605611E0
1.204437417E0,-3.219954071E0,-7.709867249E0,-7.354206848E-1,8.387550345E0
1.214377417E0,-2.970273285E0,-8.030051422E0,-4.959187317E-1,8.576140427E0
1.224317417E0,-2.383792877E0,-8.149203644E0,-2.797682190E-1,8.495308044E0
1.234257417E0,-1.501826935E0,-8.604706421E0,2.236349487E-1,8.737646670E0
1.244196417E0,-5.159770203E-1,-8.827892303E0,6.891668701E-1,8.869772589E0
1.254136417E0,3.010240173E-1,-8.965456238E0,1.027762756E0,9.029192505E0
1.264076417E0,5.352868652E-1,-9.105115814E0,1.349294128E0,9.220100903E0
1.274016417E0,-1.748364258E-1,-8.925639038E0,1.556014252E0,9.061941313E0
1.283956417E0,-1.604513397E0,-8.536298676E0,1.772164764E0,8.864729340E0
1.293896417E0,-2.727777557E0,-8.306975555E0,1.817071381E0,8.930193821E0
1.303835417E0,-3.411705322E0,-8.200097809E0,1.655557251E0,9.034500932E0
1.313775417E0,-3.581302643E0,-8.144563293E0,1.492097168E0,9.021418615E0
1.323715417E0,-3.378474426E0,-8.151748352E0,1.475781097E0,8.946676505E0
1.333655417E0,-2.728825378E0,-8.118816833E0,1.418600006E0,8.681825885E0
1.343595417E0,-1.866618347E0,-8.026608582E0,1.232985992E0,8.332524457E0
1.353535417E0,-1.105900269E0,-7.855664063E0,1.235081635E0,8.028692291E0
1.363474417E0,-4.767585754E-1,-7.521558838E0,1.451830902E0,7.675217199E0
1.373414417E0,-2.234852600E-1,-7.225474548E0,1.693877563E0,7.424732272E0
1.383354417E0,-1.694476318E-1,-7.040758667E0,1.735790405E0,7.253548334E0
1.393294417E0,-3.335064697E-1,-7.036118317E0,1.795965271E0,7.269365776E0
1.403234417E0,-7.030879211E-1,-7.150480499E0,2.028581543E0,7.465845369E0
1.413174417E0,-1.400188293E0,-7.463180237E0,2.061662750E0,7.868293322E0
1.423114417E0,-2.534828796E0,-8.000862122E0,1.826801147E0,8.589316279E0
1.433053417E0,-4.004472656E0,-8.544980621E0,1.582060089E0,9.568459082E0
1.442993417E0,-5.761518860E0,-9.157806244E0,1.341959381E0,1.090235616E1
1.452933417E0,-7.534881134E0,-9.652228088E0,9.056167603E-1,1.227843974E1
1.462873417E0,-8.969348145E0,-1.015697845E1,4.302053833E-1,1.355723033E1
1.472813417E0,-1.020338196E1,-1.062849792E1,2.628533936E-1,1.473577495E1
1.482753417E0,-1.094000015E1,-1.079240707E1,3.052153015E-1,1.537051756E1
1.492692417E0,-1.075797867E1,-1.024364822E1,4.423301697E-1,1.486142961E1
1.502632208E0,-9.564061432E0,-9.328301697E0,6.939569092E-1,1.337796920E1
1.512572208E0,-8.135132904E0,-8.845106506E0,1.146765289E0,1.207192475E1
1.522512208E0,-7.191495209E0,-8.817863159E0,1.536554718E0,1.148186894E1
1.532452208E0,-6.553372192E0,-8.658294983E0,1.531764679E0,1.096626929E1
1.542392208E0,-5.846542053E0,-8.472830658E0,8.451425171E-1,1.032885179E1
1.552332208E0,-4.982389069E0,-8.456664276E0,-1.483415222E-1,9.816383077E0
1.562271208E0,-3.999682617E0,-8.895850983E0,-5.587879944E-1,9.769640207E0
1.572211208E0,-3.625161438E0,-1.000609222E1,-1.481918335E-1,1.064357261E1
1.582151208E0,-4.190835114E0,-1.155821457E1,3.118016052E-1,1.229848134E1
1.592091208E0,-5.184768219E0,-1.254885452E1,5.553451538E-2,1.357787374E1
1.602031208E0,-5.414390717E0,-1.314671127E1,-4.321513367E-1,1.422457025E1
1.611971208E0,-5.420527954E0,-1.350312012E1,-6.102809143E-1,1.456326952E1
1.621910208E0,-4.554129639E0,-1.345641724E1,-5.426216125E-1,1.421652911E1
1.631850208E0,-2.411036224E0,-1.165910477E1,-5.406756592E-1,1.191805982E1
1.641790208E0,-1.103056183E0,-9.764794006E0,-3.917353821E-1,9.834703429E0
1.651730208E0,-9.620494080E-1,-8.932225342E0,7.828720093E-2,8.984226038E0
1.661670208E0,-5.243595886E-1,-7.879165192E0,6.262976074E-1,7.921391657E0
1.671610208E0,-6.529421997E-1,-6.909182281E0,8.044271851E-1,6.986432309E0
1.681549208E0,-4.932243347E-1,-6.455026703E0,8.854087830E-1,6.534109633E0
1.691489208E0,-4.837939453E-1,-6.301895142E0,9.066645813E-1,6.385137400E0
1.701429208E0,-6.800358582E-1,-6.288722534E0,6.246510315E-1,6.356152043E0
1.711369208E0,-9.654922485E-1,-6.588698730E0,1.712438965E-1,6.661264949E0
1.721309208E0,-1.472787323E0,-7.213200073E0,-3.529660034E-1,7.370477786E0
1.731249208E0,-2.066602478E0,-8.073161774E0,-7.719447327E-1,8.369150823E0
1.741188208E0,-2.541714478E0,-9.067543945E0,-1.146615601E0,9.486590168E0
1.751128208E0,-2.917133789E0,-9.928403778E0,-1.631008301E0,1.047583215E1
1.761068208E0,-3.125201111E0,-1.042926224E1,-2.085014191E0,1.108529102E1
1.771008208E0,-3.084934845E0,-1.062700104E1,-2.431244202E0,1.132964794E1
1.780948208E0,-2.778671722E0,-1.048659302E1,-2.665956116E0,1.117125649E1
1.790888208E0,-2.422412567E0,-1.025667114E1,-2.791395264E0,1.090226000E1
1.800828208E0,-2.183209991E0,-1.006042923E1,-2.803969116E0,1.066962441E1
1.810767208E0,-2.130669250E0,-9.975406036E0,-2.727328491E0,1.055873088E1
1.820707208E0,-2.319277039E0,-1.007494904E1,-2.507884827E0,1.063828606E1
1.830647208E0,-2.370470581E0,-1.011850845E1,-2.118993530E0,1.060629425E1
1.840587208E0,-2.041754150E0,-1.011731094E1,-1.671274567E0,1.045571133E1
1.850527208E0,-1.719923401E0,-1.005054977E1,-1.515598297E0,1.030867234E1
1.860467208E0,-1.403331757E0,-1.002420456E1,-1.410367126E0,1.021974327E1
1.870406208E0,-1.034199371E0,-9.960437164E0,-1.454375610E0,1.011904567E1
1.880346208E0,-6.212081909E-1,-9.852212219E0,-1.484313354E0,9.982743679E0
1.890286208E0,-3.796105957E-1,-9.643546143E0,-1.327589264E0,9.741898155E0
1.900226208E0,-3.071612549E-1,-9.371561737E0,-1.072968750E0,9.437784664E0
1.910166208E0,-4.061054993E-1,-9.051826630E0,-8.741821289E-1,9.103003977E0
1.920106208E0,-4.302053833E-1,-8.610095215E0,-8.454418945E-1,8.662193041E0
1.930045208E0,-4.423301697E-1,-8.080197144E0,-9.636959839E-1,8.149475554E0
1.939985208E0,-7.453001404E-1,-7.590116272E0,-1.110390930E0,7.707029605E0
1.949925208E0,-1.205143890E0,-7.496411133E0,-1.262474670E0,7.696908078E0
1.959865208E0,-1.464704132E0,-8.179590454E0,-1.275796967E0,8.407063464E0
1.969805208E0,-1.566043396E0,-8.885522461E0,-1.113384705E0,9.090909021E0
1.979745208E0,-1.705253906E0,-9.219328308E0,-8.840615845E-1,9.417296333E0
1.989685208E0,-1.790576477E0,-9.619895325E0,-6.010002136E-1,9.803558101E0
1.999624208E0,-1.739532623E0,-1.000235001E1,-4.532574463E-1,1.016259916E1
2.009564208E0,-1.545985107E0,-1.025786865E1,-3.872447205E-1,1.038093915E1
2.019504208E0,-1.244811401E0,-1.038824753E1,-4.661306763E-1,1.047294228E1
2.029444208E0,-9.322613525E-1,-1.038794815E1,-6.789880371E-1,1.045177510E1
2.039384208E0,-7.038363647E-1,-1.017568954E1,-9.557624817E-1,1.024468278E1
2.049324208E0,-5.254074097E-1,-9.976154480E0,-1.218915253E0,1.006406804E1
2.059263208E0,-3.240760803E-1,-9.921967163E0,-1.431323547E0,1.002991250E1
2.069203208E0,-5.523513794E-2,-9.967322845E0,-1.618584137E0,1.009803893E1
2.079143208E0,1.499880981E-1,-9.942474518E0,-1.833537140E0,1.011123901E1
2.089083208E0,2.392025757E-1,-9.845925293E0,-1.907782745E0,1.003190399E1
2.099023208E0,1.197509766E-1,-9.766440582E0,-1.877845001E0,9.946054685E0
2.108963208E0,-1.490899658E-1,-9.806407471E0,-1.822759552E0,9.975485336E0
2.118902208E0,-4.323010254E-1,-9.958191833E0,-1.636696472E0,1.010105163E1
2.128842208E0,-7.523355103E-1,-1.008737320E1,-1.314716034E0,1.020046984E1
2.138782208E0,-9.370513916E-1,-1.041564056E1,-1.025816803E0,1.050789864E1
2.148722208E0,-1.083297272E0,-1.076486435E1,-7.908055115E-1,1.084809710E1
2.158662208E0,-1.444645844E0,-1.104148911E1,-5.002597046E-1,1.114682659E1
2.168602208E0,-1.871258698E0,-1.116752701E1,-3.336561584E-1,1.132813290E1
2.178541208E0,-2.328258362E0,-1.102921463E1,-4.239184570E-1,1.128025129E1
2.188481208E0,-2.754122772E0,-1.067954178E1,-7.011419678E-1,1.105121735E1
2.198421208E0,-3.065175934E0,-1.046084656E1,-1.040336609E0,1.095020157E1
2.208361208E0,-3.285966797E0,-1.033899994E1,-1.351689148E0,1.093250022E1
2.218301208E0,-3.402424622E0,-1.022209305E1,-1.679657135E0,1.090361993E1
2.228241208E0,-3.650309143E0,-9.997260590E0,-1.959275665E0,1.082167904E1
2.238180208E0,-3.849844208E0,-9.855056305E0,-2.121687927E0,1.079096821E1
2.248120208E0,-3.971241760E0,-9.745035095E0,-2.103725281E0,1.073136199E1
2.258060208E0,-3.775748291E0,-1.040067169E1,-1.829944611E0,1.121512122E1
2.268000208E0,-3.150199127E0,-1.133966904E1,-1.339414673E0,1.184507831E1
2.277940208E0,-2.470762024E0,-1.152198990E1,-1.052461395E0,1.183083223E1
2.287880208E0,-2.102228394E0,-1.152812714E1,-1.162482605E0,1.177575668E1
2.297819208E0,-2.268382874E0,-1.138412659E1,-1.333726501E0,1.168429396E1
2.307759208E0,-2.823877716E0,-1.104897354E1,-1.383273468E0,1.148771288E1
2.317699208E0,-3.615281982E0,-1.093610825E1,-1.310824127E0,1.159254016E1
2.327639208E0,-4.290827179E0,-1.117471207E1,-1.232536926E0,1.203347560E1
2.337579208E0,-4.662953339E0,-1.143382324E1,-1.107097778E0,1.239762531E1
2.347519208E0,-4.786745911E0,-1.158231445E1,-8.454418945E-1,1.256096002E1
2.357459208E0,-4.761897583E0,-1.144998962E1,-3.870950317E-1,1.240676322E1
2.367398208E0,-4.464915161E0,-1.105196732E1,7.694000244E-2,1.192004063E1
2.377338208E0,-4.036506042E0,-1.066636917E1,3.192860413E-1,1.140906464E1
2.387278208E0,-3.444487152E0,-1.054182816E1,3.119512939E-1,1.109468099E1
2.397218208E0,-2.639161835E0,-1.058778259E1,1.959425354E-1,1.091351038E1
2.407158208E0,-1.810036011E0,-1.092203751E1,3.656895447E-1,1.107704214E1
2.417098208E0,-9.253756714E-1,-1.137813904E1,5.412744141E-1,1.142853211E1
2.427037208E0,9.520202637E-2,-1.182376236E1,4.808001709E-1,1.183391687E1
2.436977208E0,1.071022797E0,-1.214125214E1,4.403842163E-1,1.219635321E1
2.446917208E0,1.837728424E0,-1.213780930E1,9.595046997E-1,1.231358232E1
2.456857208E0,2.150428162E0,-1.200054474E1,1.061143341E0,1.223778740E1
2.466797208E0,2.549797668E0,-1.208242447E1,2.451901245E-1,1.235097435E1
2.476737208E0,3.085683289E0,-1.209469894E1,-8.291258240E-1,1.250962164E1
2.486676208E0,3.176394653E0,-1.136781052E1,-1.665885773E0,1.192022543E1
2.496616208E0,4.193529510E0,-1.109971802E1,-2.110760651E0,1.205175258E1
2.506556208E0,4.706812134E0,-1.108564728E1,-2.180665283E0,1.223932012E1
2.516496208E0,3.994742889E0,-1.099763031E1,-2.214345245E0,1.190836547E1
2.526436208E0,3.190764771E0,-1.106933121E1,-2.313588867E0,1.175005390E1
2.536376208E0,2.306403809E0,-1.114387619E1,-2.422711945E0,1.163507663E1
2.546315208E0,1.738335114E0,-1.097442856E1,-2.422412567E0,1.137224577E1
2.556255208E0,1.104403381E0,-1.058089691E1,-2.161056061E0,1.085565519E1
2.566195208E0,-3.010240173E-1,-1.004905289E1,-1.509011993E0,1.016617906E1
2.576135208E0,-1.907633057E0,-9.546248474E0,-1.679208069E0,9.878748076E0
2.586075208E0,-2.650987244E0,-9.186097412E0,-2.356998596E0,9.847210844E0
2.596015208E0,-3.557951202E0,-8.771160278E0,-2.960094452E0,9.917380125E0
2.605954208E0,-4.060905304E0,-8.750802612E0,-1.824705505E0,9.818199857E0
2.615894208E0,-3.929029541E0,-8.565338287E0,-6.417155457E-1,9.445321167E0
2.625834208E0,-3.598965912E0,-8.391100616E0,-3.942800903E-1,9.138850145E0
2.635774208E0,-2.991529083E0,-8.893306274E0,-1.854643250E-1,9.384803661E0
2.645714208E0,-1.991758118E0,-1.001701950E1,1.407073975E-2,1.021312773E1
2.655654208E0,-1.092128906E0,-1.068882248E1,4.537065125E-1,1.075404673E1
2.665593208E0,-1.736389160E-1,-1.107561813E1,6.090834045E-1,1.109371219E1
2.675533208E0,5.533992004E-1,-1.108265350E1,3.098556519E-1,1.110078690E1
2.685473208E0,1.053359528E0,-1.076321777E1,9.774673462E-2,1.081508102E1
2.695413208E0,1.467997284E0,-1.002540207E1,-3.040177917E-1,1.013686981E1
2.705353208E0,1.873953094E0,-9.107959900E0,-7.408094788E-1,9.328206281E0
2.715293208E0,2.421664124E0,-8.071365509E0,-1.134341125E0,8.502830593E0
2.725232208E0,2.927612000E0,-7.035818939E0,-1.213825836E0,7.716672426E0
2.735172208E0,3.403622131E0,-6.145620117E0,-1.018781433E0,7.098676345E0
2.745112208E0,3.830234985E0,-5.577701111E0,-8.870553589E-1,6.824098251E0
2.755052208E0,4.089495850E0,-5.197940826E0,-6.200106812E-1,6.642814041E0
2.764992208E0,4.014651489E0,-4.962779846E0,-6.541397095E-2,6.383642328E0
2.774932208E0,3.784579926E0,-4.825515289E0,5.150788879E-1,6.154181447E0
2.784871208E0,3.520678711E0,-4.980892181E0,9.601034546E-1,6.174646885E0
2.794811208E0,3.178939362E0,-5.294340363E0,1.266815643E0,6.304008028E0
2.804751208E0,2.763702850E0,-5.538632355E0,1.404828644E0,6.347286454E0
2.814691208E0,2.151475983E0,-5.534890137E0,1.447489929E0,6.112207852E0
2.824631208E0,1.440454559E0,-5.517226868E0,1.570084991E0,5.914378118E0
2.834571208E0,8.822653198E-1,-6.048023071E0,2.032174072E0,6.441017515E0
2.844510208E0,1.821711731E-1,-6.923552399E0,2.495011597E0,7.361647032E0
2.854450208E0,-7.617658997E-1,-7.894583130E0,2.804118805E0,8.412360688E0
2.864390208E0,-1.939217377E0,-8.750802612E0,3.256927185E0,9.536492284E0
2.874330208E0,-3.731141052E0,-9.290280762E0,3.582949219E0,1.063335579E1
2.884270208E0,-5.912704468E0,-9.957144012E0,3.580404510E0,1.212122467E1
2.894210208E0,-8.216413879E0,-1.119222565E1,3.300636292E0,1.427128487E1
2.904149208E0,-1.020907013E1,-1.269165756E1,1.956431580E0,1.640520982E1
2.914089208E0,-1.125449615E1,-1.409349243E1,-4.182302856E-1,1.804065213E1
2.924029208E0,-1.132440079E1,-1.482547028E1,-2.210303650E0,1.878622006E1
2.933969208E0,-1.041998154E1,-1.475855942E1,-2.381996613E0,1.822265072E1
2.943909208E0,-8.831634521E0,-1.401460648E1,-1.088835754E0,1.660097968E1
2.953849208E0,-7.607779541E0,-1.284598663E1,2.468367004E-1,1.493179864E1
2.963788208E0,-6.187982025E0,-1.179172897E1,1.006656647E0,1.335475014E1
2.973728208E0,-4.627028046E0,-1.093371323E1,1.418450317E0,1.195690072E1
2.983668208E0,-3.750600586E0,-1.051054321E1,1.557660828E0,1.126786717E1
2.993608208E0,-3.256328430E0,-1.049287994E1,1.509461060E0,1.108975550E1
3.003548208E0,-2.557581482E0,-1.086186264E1,1.175954590E0,1.122070195E1
3.013488208E0,-1.882934418E0,-1.121467896E1,8.500822449E-1,1.140338134E1
3.023427208E0,-1.464255066E0,-1.139505386E1,-2.168989563E-1,1.149079373E1
3.033367208E0,-4.903802490E-1,-1.166494263E1,-2.947221222E0,1.204148962E1
3.043307208E0,8.342152405E-1,-1.181537979E1,-4.992418213E0,1.285392369E1
3.053247208E0,1.583407288E0,-1.148366959E1,-3.357967072E0,1.206887686E1
3.063187208E0,2.236798553E0,-1.166524200E1,1.989662476E0,1.204325104E1
3.073127208E0,3.137774963E0,-1.184501816E1,5.667065277E0,1.350058205E1
3.083066208E0,3.431613922E0,-1.059571609E1,6.332431641E0,1.281190322E1
3.093006208E0,4.172423401E0,-9.576335907E0,4.716242523E0,1.146116355E1
3.102946208E0,3.993994446E0,-8.986412659E0,1.868115234E0,1.000986806E1
3.112886208E0,3.352278900E0,-8.761430511E0,-5.614823914E-1,9.397643370E0
3.122826208E0,2.974614258E0,-8.490044861E0,-1.694027252E0,9.154175007E0
3.132766208E0,3.015928345E0,-8.345445557E0,-2.196831665E0,9.141572878E0
3.142705208E0,3.270099792E0,-8.592431946E0,-2.190245361E0,9.450958371E0
3.152645208E0,3.005450134E0,-8.515791321E0,-1.943408661E0,9.237330218E0
3.162585208E0,2.127076721E0,-8.051307220E0,-1.831740875E0,8.526621721E0
3.172525208E0,1.553619232E0,-7.575746155E0,-1.737586670E0,7.926214100E0
3.182465208E0,1.200653229E0,-7.109615479E0,-1.672621765E0,7.401747361E0
3.192405208E0,9.479786682E-1,-6.864125977E0,-1.730551300E0,7.142107307E0
3.202344208E0,6.996450806E-1,-6.837481384E0,-1.925146637E0,7.137705828E0
3.212284208E0,4.361929321E-1,-7.075935516E0,-2.160906372E0,7.411386109E0
3.222224208E0,2.020797729E-1,-7.501350861E0,-2.226619720E0,7.827447627E0
3.232164208E0,2.529739380E-2,-7.906258850E0,-2.164049835E0,8.197114166E0
3.242104208E0,-1.838177490E-1,-8.179141388E0,-2.045646057E0,8.433078358E0
3.252044208E0,-4.095483398E-1,-8.328381042E0,-1.873504028E0,8.546325408E0
3.261983208E0,-6.227050781E-1,-8.333021393E0,-1.594783630E0,8.507075994E0
3.271923208E0,-7.414082336E-1,-8.499624939E0,-1.244661713E0,8.622209291E0
3.281863208E0,-6.381230164E-1,-9.092092896E0,-9.693841553E-1,9.165863835E0
3.291803208E0,-4.710704041E-1,-1.015997223E1,-7.762857056E-1,1.020046874E1
3.301743208E0,-2.513273621E-1,-1.118833374E1,-6.653663635E-1,1.121091833E1
3.311682208E0,2.899470520E-1,-1.175340866E1,-6.209088135E-1,1.177336877E1
3.321622208E0,8.405021667E-1,-1.185235291E1,-6.270460510E-1,1.189865119E1
3.331562208E0,1.044228516E0,-1.172391998E1,-5.652246094E-1,1.178389544E1
3.341502208E0,1.017883301E0,-1.122036713E1,-5.270539856E-1,1.127876371E1
3.351442208E0,9.828561401E-1,-1.043465103E1,-4.962181091E-1,1.049257741E1
3.361382208E0,1.027164001E0,-9.733059998E0,-5.269042969E-1,9.801283127E0
3.371321208E0,1.138083344E0,-9.300309906E0,-5.610333252E-1,9.386466664E0
3.381261208E0,1.362616425E0,-9.082063751E0,-6.562353516E-1,9.207130407E0
3.391201208E0,1.530567169E0,-8.836723938E0,-7.258406067E-1,8.997620263E0
3.401141208E0,1.579515381E0,-8.564140778E0,-7.307803345E-1,8.739188520E0
3.411081208E0,1.371448059E0,-8.423283691E0,-6.021977234E-1,8.555420505E0
3.421021208E0,1.058448944E0,-8.301586761E0,-4.502636719E-1,8.380894600E0
3.430960208E0,7.897576904E-1,-8.159382477E0,-3.106040955E-1,8.203396523E0
3.440900208E0,5.019062805E-1,-8.142018585E0,-1.978884888E-1,8.159873554E0
3.450840208E0,2.597099304E-1,-8.291407928E0,-1.082249451E-1,8.296180285E0
3.460780208E0,1.796264648E-1,-8.719966736E0,-3.008743286E-2,8.721868538E0
3.470720208E0,2.137554932E-1,-9.257199554E0,2.484832764E-2,9.259700451E0
3.480660208E0,4.008663940E-1,-9.735604706E0,3.382965088E-2,9.743912833E0
3.490599208E0,6.167175293E-1,-1.024604324E1,2.110610962E-2,1.026460852E1
3.500539292E0,7.542814636E-1,-1.072983719E1,-7.783813477E-3,1.075631941E1
3.510479292E0,7.509883118E-1,-1.103639969E1,-2.140548706E-2,1.106194195E1
3.520419292E0,6.268963623E-1,-1.118339401E1,-2.694396973E-3,1.120095121E1
3.530359292E0,4.487667847E-1,-1.116932327E1,-0.000000000E0,1.117833503E1
3.540299292E0,2.662962341E-1,-1.104358475E1,1.691482544E-2,1.104680786E1
3.550238292E0,4.700225830E-2,-1.088805817E1,2.544708252E-2,1.088818935E1
3.560178292E0,-2.649490356E-2,-1.062011536E1,-0.000000000E0,1.062014841E1
3.570118292E0,-1.041833496E-1,-1.041668839E1,-1.362167358E-2,1.041721828E1
3.580058292E0,-7.828720093E-2,-1.012240036E1,-6.735992432E-3,1.012270534E1
3.589998292E0,-9.624984741E-2,-9.878258057E0,-4.490661621E-4,9.878726966E0
3.599938292E0,-1.666035461E-1,-9.818681946E0,1.990859985E-2,9.820115490E0
3.609877292E0,-2.906954956E-1,-9.779313812E0,7.783813477E-3,9.783636497E0
3.619817292E0,-4.676275635E-1,-9.740843811E0,-7.574249268E-2,9.752356157E0
3.629757292E0,-5.950126648E-1,-9.799072723E0,-2.125579834E-1,9.819421938E0
3.639697292E0,-7.890092468E-1,-1.000998413E1,-4.848417664E-1,1.005273045E1
3.649637292E0,-9.517208862E-1,-1.030412247E1,-7.303312683E-1,1.037372143E1
3.659577292E0,-1.041983185E0,-1.052416489E1,-8.666976929E-1,1.061107631E1
3.669516292E0,-1.190474396E0,-1.075573334E1,-1.178199921E0,1.088536559E1
3.679456292E0,-1.392554169E0,-1.080857346E1,-1.433868256E0,1.099183540E1
3.689396292E0,-1.528022461E0,-1.107995911E1,-1.670376434E0,1.130886837E1
3.699336292E0,-1.609602814E0,-1.146675476E1,-1.851649475E0,1.172629062E1
3.709276292E0,-1.627565460E0,-1.157887161E1,-2.039508820E0,1.186923896E1
3.719215292E0,-1.540746002E0,-1.166943329E1,-2.348915405E0,1.200279030E1
3.729155292E0,-1.537153473E0,-1.175041489E1,-2.565365295E0,1.212502329E1
3.739095292E0,-1.640438690E0,-1.173080566E1,-2.375709686E0,1.208084588E1
3.749035292E0,-1.862576752E0,-1.180115936E1,-1.694476318E0,1.206680589E1
3.758975292E0,-2.126477966E0,-1.198632431E1,-1.000519409E0,1.221453716E1
3.768915292E0,-2.331551514E0,-1.220486984E1,-4.637356567E-1,1.243422821E1
3.778854292E0,-2.384691010E0,-1.235366043E1,-1.204994202E-1,1.258229698E1
3.788794292E0,-2.531984711E0,-1.267459305E1,8.502319336E-2,1.292530404E1
3.798734292E0,-2.676584015E0,-1.283955002E1,3.350033569E-1,1.311984657E1
3.808674292E0,-2.589465179E0,-1.253598129E1,5.888754272E-1,1.281416916E1
3.818614292E0,-2.389930115E0,-1.206431213E1,8.155041504E-1,1.232576327E1
3.828554292E0,-2.400408325E0,-1.184232376E1,1.539099426E0,1.218078073E1
3.838493292E0,-2.687960358E0,-1.167347488E1,4.831353149E0,1.291654443E1
3.848433292E0,-2.661764832E0,-1.094943054E1,7.306605835E0,1.342987379E1
3.858373292E0,-2.215842133E0,-9.901310120E0,6.586453400E0,1.209658079E1
3.868313292E0,-1.527124329E0,-9.038504333E0,4.755161591E0,1.032657886E1
3.878253292E0,-8.476872253E-1,-8.394693146E0,2.880160675E0,8.915423274E0
3.888193292E0,-2.463876343E-1,-8.382568359E0,6.902146912E-1,8.414544283E0
3.898132292E0,5.731581116E-1,-9.045090637E0,-1.374890900E0,9.166924230E0
3.908072292E0,1.600172424E0,-1.001462448E1,-2.287543030E0,1.039644691E1
3.918012292E0,2.113754425E0,-1.112097382E1,-2.099833374E0,1.151318012E1
3.927952292E0,2.270777893E0,-1.204200851E1,-1.965712280E0,1.241089949E1
3.937892292E0,2.312241669E0,-1.268402344E1,-2.458786926E0,1.312541600E1
3.947831292E0,2.368824005E0,-1.323637482E1,-2.943179626E0,1.376500097E1
3.957771292E0,2.003583527E0,-1.353799759E1,-2.908451843E0,1.399109781E1
3.967711292E0,1.269959106E0,-1.359023895E1,-2.877466278E0,1.394945171E1
3.977651292E0,4.158352661E-1,-1.300944672E1,-2.909649353E0,1.333734165E1
3.987591292E0,-6.228547668E-1,-1.211251190E1,-2.642155609E0,1.241297220E1
3.997531292E0,-1.601519623E0,-1.116662888E1,-2.404599609E0,1.153432117E1
4.007470292E0,-2.107018433E0,-1.041564056E1,-1.815275116E0,1.078055280E1
4.017410292E0,-2.451452179E0,-9.797126770E0,-1.239123230E0,1.017490723E1
4.027350292E0,-2.593806152E0,-9.372908936E0,-9.075627136E-1,9.767441955E0
4.037290292E0,-2.347119141E0,-9.074729004E0,-7.312294006E-1,9.401828077E0
4.047230292E0,-1.694775696E0,-8.896749115E0,-9.231303406E-1,9.103657457E0
4.057170292E0,-1.026116180E0,-8.919501801E0,-1.256337433E0,9.065804461E0
4.067109292E0,-6.273454285E-1,-8.994795227E0,-1.666185150E0,9.169300759E0
4.077049292E0,-1.923500061E-1,-9.092541962E0,-1.668280792E0,9.246322439E0
4.086989292E0,2.288740540E-1,-9.126521301E0,-1.463506622E0,9.245951873E0
4.096929292E0,5.536985779E-1,-9.021290131E0,-1.272653503E0,9.127425961E0
4.106869292E0,6.963519287E-1,-8.708740082E0,-1.168320465E0,8.814308398E0
4.116808292E0,8.613088989E-1,-8.402926025E0,-1.347497864E0,8.553757613E0
4.126748292E0,8.339158630E-1,-8.045319672E0,-1.473984833E0,8.221630956E0
4.136688292E0,6.734495544E-1,-7.670199738E0,-1.419198761E0,7.829407605E0
4.146628292E0,7.932005310E-1,-7.483088837E0,-1.376537476E0,7.649878498E0
4.156568292E0,1.269510040E0,-7.309300232E0,-1.375789032E0,7.545218425E0
4.166508292E0,1.951491852E0,-7.192393341E0,-1.437909851E0,7.589889799E0
4.176447292E0,2.745440826E0,-7.118447113E0,-1.472937012E0,7.770410419E0
4.186387292E0,3.476670227E0,-6.936275940E0,-1.463506622E0,7.895632427E0
4.196327292E0,4.030967560E0,-6.662495270E0,-1.311572571E0,7.896693314E0
4.206267292E0,4.375850372E0,-6.321803741E0,-1.008901978E0,7.754427911E0
4.216207292E0,4.409530334E0,-6.086493073E0,-6.647676086E-1,7.545281417E0
4.226147292E0,4.362827454E0,-6.142476654E0,-2.824626160E-1,7.539500512E0
4.236086292E0,4.179907837E0,-6.319708099E0,9.624984741E-2,7.577572436E0
4.246026292E0,3.814817047E0,-6.438111877E0,5.849835205E-1,7.506285324E0
4.255966292E0,3.405268707E0,-6.503675537E0,1.340462494E0,7.462606124E0
4.265906292E0,3.019520874E0,-6.854695587E0,2.849923553E0,8.014138891E0
4.275846292E0,2.350861359E0,-7.793543243E0,5.894143066E0,1.005021333E1
4.285786292E0,2.698887634E-1,-9.157656555E0,9.898615723E0,1.348770206E1
4.295725292E0,-2.863694916E0,-1.067939209E1,1.010294083E1,1.497730207E1
4.305665292E0,-5.464087372E0,-1.207419159E1,6.539900208E0,1.477879048E1
4.315605292E0,-7.291187897E0,-1.327978455E1,2.747985535E0,1.539693226E1
4.325545292E0,-9.496701508E0,-1.450438797E1,2.225871277E-1,1.733822814E1
4.335485292E0,-1.153022278E1,-1.522244476E1,-8.129594421E-1,1.911360157E1
4.345424292E0,-1.189681046E1,-1.534638702E1,-1.005159760E0,1.944366323E1
4.355364292E0,-1.119057907E1,-1.481169891E1,-3.926335144E-1,1.856797366E1
4.365304292E0,-1.028062134E1,-1.356239685E1,1.097218323E-1,1.701886666E1
4.375244292E0,-9.323811035E0,-1.220666611E1,-3.808081055E-1,1.536493295E1
4.385184292E0,-7.968828735E0,-1.162632294E1,-6.982978821E-1,1.411244969E1
4.395124292E0,-6.108497314E0,-1.098879868E1,-5.691165161E-1,1.258536171E1
4.405063292E0,-4.949906616E0,-1.009979736E1,9.235794067E-2,1.124793369E1
4.415003292E0,-4.724325714E0,-9.417067108E0,4.888833618E-1,1.054700969E1
4.424943292E0,-4.795577545E0,-8.744066620E0,2.330653381E-1,9.975499210E0
4.434883292E0,-4.701573029E0,-8.240962830E0,1.643582153E-1,9.489218668E0
4.444823292E0,-4.476740570E0,-8.320297852E0,3.635939026E-1,9.455197671E0
4.454762292E0,-4.219275970E0,-9.290430450E0,1.942959595E-1,1.020549551E1
4.464702292E0,-3.662583618E0,-1.046997757E1,-7.830216980E-1,1.111971547E1
4.474642292E0,-2.439626770E0,-1.114567245E1,-1.752256165E0,1.154331819E1
4.484582292E0,-8.339158630E-1,-1.133128647E1,-2.385589142E0,1.160967287E1
4.494522292E0,5.640270996E-1,-1.135987701E1,-2.984493713E0,1.175891726E1
4.504462417E0,1.540446625E0,-1.119402191E1,-3.212170258E0,1.174721840E1
4.514401417E0,2.301015015E0,-1.074555450E1,-2.350262604E0,1.123767529E1
4.524341417E0,2.929108887E0,-1.083446960E1,4.207749939E-1,1.123131613E1
4.534281417E0,2.976111145E0,-1.146480881E1,4.448000336E0,1.265242212E1
4.544221417E0,2.282603302E0,-1.141675873E1,5.565127258E0,1.290439069E1
4.554161417E0,2.005230103E0,-1.058284286E1,2.476001129E0,1.105206281E1
4.564100417E0,2.349514160E0,-9.761500854E0,-2.827619934E-1,1.004425558E1
4.574040417E0,2.581082611E0,-9.079369354E0,-1.024020538E0,9.494501218E0
4.583980417E0,2.703677673E0,-8.386909332E0,-9.879455566E-1,8.867139197E0
4.593920417E0,2.738106079E0,-7.909102936E0,-9.327104187E-1,8.421465601E0
4.603860417E0,2.779270477E0,-7.644902344E0,-7.996371460E-1,8.173634185E0
4.613800417E0,2.527494049E0,-7.675438843E0,-9.141490173E-1,8.132420059E0
4.623739417E0,2.029479675E0,-7.957003326E0,-1.396146698E0,8.329580739E0
4.633679417E0,1.570534058E0,-8.391849060E0,-2.052980804E0,8.780913281E0
4.643619417E0,1.208437042E0,-8.924591217E0,-2.808759155E0,9.433863284E0
4.653559417E0,1.051114197E0,-9.389374695E0,-3.585493927E0,1.010549182E1
4.663499417E0,1.104852448E0,-9.728868713E0,-4.110601959E0,1.061925769E1
4.673439417E0,1.118773499E0,-9.915829926E0,-4.376449127E0,1.089626744E1
4.683378417E0,1.001267853E0,-1.006836273E1,-4.323908386E0,1.100321086E1
4.693318417E0,7.786807251E-1,-1.026670029E1,-3.975582733E0,1.103706195E1
4.703258417E0,5.948629761E-1,-1.031519943E1,-3.540138245E0,1.092198609E1
4.713198417E0,5.119354248E-1,-1.010563522E1,-3.091371460E0,1.058028916E1
4.723138417E0,4.900808716E-1,-9.884994049E0,-2.630479889E0,1.024073782E1
4.733077417E0,2.429447937E-1,-9.811197510E0,-2.193538513E0,1.005635272E1
4.743017417E0,-4.086502075E-2,-9.785001984E0,-1.823358307E0,9.953520447E0
4.752957417E0,9.385482788E-2,-9.616602173E0,-1.541644135E0,9.739841514E0
4.762897417E0,5.077441406E-1,-9.334438934E0,-1.433568878E0,9.457519445E0
4.772837417E0,8.412506104E-1,-8.990454254E0,-1.341809692E0,9.128878548E0
4.782777417E0,9.469308472E-1,-8.750203857E0,-1.258582764E0,8.890825392E0
4.792716417E0,1.147663422E0,-8.570278015E0,-1.202150116E0,8.729946248E0
4.802656417E0,1.570234680E0,-8.403824158E0,-8.372090149E-1,8.590158110E0
4.812596417E0,1.883233795E0,-8.469238129E0,-1.981878662E-1,8.678354823E0
4.822536417E0,1.985171814E0,-8.763226776E0,8.280780029E-1,9.023345490E0
4.832476417E0,1.694326630E0,-9.182205505E0,1.955683136E0,9.539828992E0
4.842416417E0,9.735754395E-1,-9.829309845E0,2.821482697E0,1.027248489E1
4.852355417E0,1.333726501E-1,-1.033301239E1,3.060535583E0,1.077756055E1
4.862295417E0,-5.099894714E-1,-1.061053528E1,2.600242767E0,1.093639843E1
4.872235417E0,-8.217910767E-1,-1.078432388E1,1.702559509E0,1.094877578E1
4.882175417E0,-8.741821289E-1,-1.087728058E1,7.057823181E-1,1.093515230E1
4.892115417E0,-7.152127075E-1,-1.088207062E1,-1.978884888E-1,1.090734386E1
4.902054417E0,-3.356021118E-1,-1.074091415E1,-8.960366821E-1,1.078344784E1
4.911994417E0,-6.676116943E-2,-1.057655594E1,-1.347946930E0,1.066231464E1
4.921934417E0,6.137237549E-3,-1.047671356E1,-1.612446899E0,1.060007310E1
4.931874417E0,6.735992432E-2,-1.032462982E1,-1.743873596E0,1.047108464E1
4.941814417E0,1.113684082E-1,-1.010294083E1,-1.825453949E0,1.026713682E1
4.951753417E0,1.832189941E-1,-9.900262299E0,-1.884281616E0,1.007964682E1
4.961693417E0,2.932402039E-1,-9.706415405E0,-1.974992981E0,9.909646165E0
4.971633417E0,4.442761230E-1,-9.554780731E0,-2.003134460E0,9.772602712E0
4.981573417E0,5.351371765E-1,-9.454638977E0,-1.906435547E0,9.659765343E0
4.991513417E0,4.812492371E-1,-9.466913452E0,-1.724114685E0,9.634657367E0
5.001453417E0,3.793112183E-1,-9.491462402E0,-1.552122345E0,9.625010094E0
5.011392417E0,2.673440552E-1,-9.576036530E0,-1.403930511E0,9.682095297E0
5.021332417E0,1.121168518E-1,-9.717492371E0,-1.230441284E0,9.795724267E0
5.031272417E0,-1.796264648E-2,-9.784253540E0,-1.170715485E0,9.854060825E0
5.041212417E0,-2.115101624E-1,-9.821376343E0,-1.179547119E0,9.894215544E0
5.051152417E0,-4.370910645E-1,-9.784103851E0,-1.241069183E0,9.872182610E0
5.061092417E0,-6.941065979E-1,-9.771529999E0,-1.306183777E0,9.882848706E0
5.071031417E0,-9.008267212E-1,-9.810748444E0,-1.389560394E0,9.949530235E0
5.080971417E0,-9.848020935E-1,-9.892478485E0,-1.518891449E0,1.005673888E1
5.090911417E0,-9.354048157E-1,-9.988279266E0,-1.635199585E0,1.016437812E1
5.100851417E0,-8.711883545E-1,-1.015608032E1,-1.654958496E0,1.032684968E1
5.110791417E0,-8.325686646E-1,-1.033645523E1,-1.436562653E0,1.046896316E1
5.120730417E0,-8.833131409E-1,-1.061742096E1,-1.077758789E0,1.070847487E1
5.130670417E0,-9.785151672E-1,-1.077609100E1,-1.104403381E0,1.087664176E1
5.140610417E0,-1.178050232E0,-1.100616257E1,-1.325343933E0,1.114809191E1
5.150550417E0,-1.580413513E0,-1.141166931E1,-1.668280792E0,1.164075015E1
5.160490417E0,-2.134710846E0,-1.214065338E1,-2.107916565E0,1.250582933E1
5.170430417E0,-2.533331909E0,-1.286065613E1,-2.450853424E0,1.333495141E1
5.180369417E0,-2.781665497E0,-1.334744385E1,-2.615511017E0,1.388282457E1
5.190309417E0,-2.762355652E0,-1.350820953E1,-2.595303040E0,1.402989421E1
5.200249417E0,-2.379302216E0,-1.342258759E1,-2.120939484E0,1.379584433E1
5.210189417E0,-1.965263214E0,-1.324894867E1,-1.231938171E0,1.345044877E1
5.220129417E0,-1.794468384E0,-1.290915527E1,-4.734654236E-1,1.304187779E1
5.230068417E0,-1.641187134E0,-1.248882935E1,8.457412720E-2,1.259648786E1
5.240008417E0,-1.543739777E0,-1.201656143E1,4.969665527E-1,1.212550440E1
5.249948417E0,-1.347797241E0,-1.145013931E1,1.282233582E0,1.160027459E1
5.259888417E0,-9.596543884E-1,-1.084839066E1,3.633394318E0,1.148085670E1
5.269828417E0,-6.120771790E-1,-1.044991928E1,6.068829803E0,1.209984077E1
5.279767417E0,-2.800675964E-1,-1.008063721E1,6.301595764E0,1.189150089E1
5.289707417E0,1.974394226E-1,-9.464668121E0,4.603526917E0,1.052669868E1
5.299647417E0,4.724176025E-1,-8.719367981E0,2.551144867E0,9.097191683E0
5.309587417E0,4.180805969E-1,-8.223598938E0,3.083587646E-1,8.239991263E0
5.319527417E0,5.078938293E-1,-8.151898041E0,-1.469943237E0,8.298923480E0
5.329467417E0,8.141569519E-1,-8.664432220E0,-2.311642914E0,9.004383944E0
5.339406417E0,1.343605957E0,-9.675429840E0,-2.502046967E0,1.008362329E1
5.349346417E0,2.020198975E0,-1.086695206E1,-2.472707977E0,1.132634697E1
5.359286417E0,2.409090271E0,-1.207553879E1,-2.894680481E0,1.264917104E1
5.369226417E0,2.565814362E0,-1.327634171E1,-3.995042267E0,1.409982323E1
5.379166417E0,3.104095001E0,-1.406505157E1,-4.728666687E0,1.515986049E1
5.389105417E0,3.440744934E0,-1.449241287E1,-4.912484436E0,1.568442731E1
5.399045417E0,3.434607697E0,-1.405098083E1,-4.914430389E0,1.527672146E1
5.408985417E0,3.376079407E0,-1.302740936E1,-4.542154541E0,1.420360781E1
5.418925417E0,2.628384247E0,-1.181163757E1,-3.404819641E0,1.257044083E1
5.428865417E0,1.131796417E0,-1.063688049E1,-1.839524689E0,1.085394126E1
5.438805417E0,4.580474854E-2,-9.859397278E0,-3.647914124E-1,9.866249821E0
5.448744417E0,-3.972738647E-1,-9.420210571E0,5.194198608E-1,9.442880425E0
5.458684417E0,-7.153623962E-1,-9.264534302E0,2.721340942E-1,9.296095748E0
5.468624417E0,-1.024619293E0,-9.341025238E0,-1.062191162E0,9.456894166E0
5.478564417E0,-8.922944641E-1,-9.357191620E0,-1.707499237E0,9.553469426E0
5.488504417E0,-8.300239563E-1,-9.291478271E0,-1.418300629E0,9.435681476E0
5.498443417E0,-1.020428009E0,-9.298064575E0,-5.628295898E-1,9.370808680E0
5.508383583E0,-1.204096069E0,-9.322314148E0,-3.742218018E-2,9.399829192E0
5.518323583E0,-1.392404480E0,-9.375154266E0,-3.679348755E-1,9.485129616E0
5.528263583E0,-1.512155457E0,-9.337133331E0,-6.930587769E-1,9.484144845E0
5.538203583E0,-1.763931885E0,-9.084608459E0,-7.523355103E-1,9.284803459E0
5.548143583E0,-1.429826660E0,-8.836574249E0,-8.945397949E-1,8.996090828E0
5.558082583E0,-8.903485107E-1,-8.516390076E0,-1.009351044E0,8.622088490E0
5.568022583E0,-1.987866211E-1,-8.227490845E0,-9.066645813E-1,8.279683713E0
5.577962583E0,7.488926697E-1,-7.979606323E0,-8.149053955E-1,8.055993304E0
5.587902583E0,1.642384644E0,-7.726782074E0,-7.994874573E-1,7.939758733E0
5.597842583E0,2.382146301E0,-7.383845215E0,-8.322692871E-1,7.803106005E0
5.607781583E0,3.207679596E0,-7.011719055E0,-9.889933777E-1,7.773771311E0
5.617721583E0,3.910917206E0,-6.602021027E0,-1.097517700E0,7.751548241E0
5.627661583E0,4.333488464E0,-6.183641052E0,-1.021026764E0,7.619647931E0
5.637601583E0,4.531376953E0,-5.821094971E0,-8.060737610E-1,7.420800405E0
5.647541583E0,4.491410065E0,-5.631589050E0,-4.698728943E-1,7.218610679E0
5.657480583E0,4.147275696E0,-5.790857849E0,-6.735992432E-3,7.122778650E0
5.667420583E0,3.543431396E0,-6.061495056E0,5.938151550E-1,7.046292984E0
5.677360583E0,2.801274719E0,-6.333479462E0,1.182241516E0,7.025510455E0
5.687300583E0,2.052382050E0,-6.605164490E0,1.639690247E0,7.108379148E0
5.697240583E0,1.251248016E0,-6.969357147E0,2.142794037E0,7.397913688E0
5.707180583E0,3.570075989E-1,-7.469018097E0,2.904110870E0,8.021692197E0
5.717119583E0,-7.438032532E-1,-8.173004150E0,3.912114716E0,9.091528016E0
5.727059583E0,-2.262395325E0,-9.134155426E0,4.892426147E0,1.060599178E1
5.736999583E0,-3.826492767E0,-1.027717850E1,4.901856537E0,1.201210399E1
5.746939583E0,-4.981640625E0,-1.140388550E1,3.834276581E0,1.302179038E1
5.756879583E0,-5.575904846E0,-1.221609650E1,2.525697784E0,1.366392615E1
5.766818583E0,-5.704637146E0,-1.264660126E1,1.353635101E0,1.393957447E1
5.776758583E0,-5.536536713E0,-1.273446854E1,6.397695923E-1,1.390069181E1
5.786698583E0,-5.363496552E0,-1.250454666E1,3.647914124E-1,1.361116656E1
5.796638583E0,-5.592071228E0,-1.228884521E1,4.221221924E-1,1.350796670E1
5.806578583E0,-6.323749695E0,-1.195249466E1,4.424798584E-1,1.352951319E1
5.816518583E0,-6.991361389E0,-1.133757339E1,8.158035278E-2,1.332014864E1
5.826457583E0,-7.352111206E0,-1.088251968E1,-3.052153015E-1,1.313681583E1
5.836397583E0,-7.397766266E0,-1.076905563E1,-6.256988525E-1,1.308017599E1
5.846337583E0,-6.920558624E0,-1.089524323E1,-5.394781494E-1,1.291864905E1
5.856277583E0,-6.143973541E0,-1.104418350E1,-5.388793945E-3,1.263813393E1
5.866217583E0,-5.480852509E0,-1.082219513E1,6.481521606E-1,1.214824073E1
5.876156583E0,-4.850064240E0,-1.024574387E1,1.137484589E0,1.139264068E1
5.886096583E0,-4.164639587E0,-9.724827118E0,9.659413147E-1,1.062306585E1
5.896036583E0,-3.248694305E0,-9.409582672E0,4.719685364E-1,9.965792244E0
5.905976583E0,-2.190544739E0,-9.644444275E0,1.651066589E-1,9.891463584E0
5.915916583E0,-1.082548828E0,-1.071711365E1,-2.874023438E-2,1.077168802E1
5.925855583E0,-2.424957275E-2,-1.217328552E1,-4.086502075E-1,1.218016681E1
5.935795583E0,8.321195984E-1,-1.342543167E1,-6.391708374E-1,1.346637212E1
5.945735583E0,1.540296936E0,-1.422626633E1,-8.171507263E-1,1.433272143E1
5.955675583E0,2.115550690E0,-1.446457077E1,-3.360511780E-1,1.462232173E1
5.965615583E0,2.189796295E0,-1.344099930E1,1.605710907E0,1.371254818E1
5.975554583E0,1.343755646E0,-1.174293045E1,4.394561462E0,1.261008585E1
5.985494583E0,7.828720093E-1,-1.120629639E1,5.964646454E0,1.271892191E1
5.995434583E0,1.192270660E0,-1.117725677E1,4.706812134E0,1.218633082E1
6.005374583E0,2.201322327E0,-1.062565384E1,1.681902466E0,1.098085313E1
6.015314583E0,2.877316589E0,-9.792037354E0,-9.767189026E-1,1.025265459E1
6.025254583E0,2.832709351E0,-8.940607910E0,-1.805245972E0,9.550791857E0
6.035193583E0,2.614463196E0,-7.965685272E0,-1.415157166E0,8.502366110E0
6.045133583E0,2.543061676E0,-6.945257263E0,-1.256786499E0,7.502217902E0
6.055073583E0,2.630479889E0,-6.060746613E0,-1.255289612E0,6.725163638E0
6.065013583E0,2.438429260E0,-5.791306915E0,-1.146166534E0,6.387399374E0
6.074953583E0,1.970352631E0,-6.291566620E0,-1.421743469E0,6.744438784E0
6.084892583E0,1.850901031E0,-7.304061127E0,-1.988464966E0,7.792890124E0
6.094832583E0,2.088307343E0,-8.582103424E0,-2.744393005E0,9.249065883E0
6.104772583E0,2.137704620E0,-9.685908051E0,-3.498674469E0,1.051795222E1
6.114712583E0,1.941013641E0,-1.042656784E1,-4.038152618E0,1.134845925E1
6.124652583E0,1.472937012E0,-1.092458221E1,-4.134552155E0,1.177329867E1
6.134592583E0,9.406439209E-1,-1.109567642E1,-3.969595184E0,1.182186670E1
6.144531583E0,5.315446472E-1,-1.104702759E1,-3.770209808E0,1.168476958E1
6.154471583E0,2.005828857E-1,-1.084599564E1,-3.622017975E0,1.143655844E1
6.164411583E0,-9.669891357E-2,-1.059287201E1,-3.414100342E0,1.112988631E1
6.174351583E0,-5.319937134E-1,-1.034289185E1,-3.105292511E0,1.081208910E1
6.184291583E0,-9.385482788E-1,-1.016491196E1,-2.576741638E0,1.052833821E1
6.194230583E0,-1.128054199E0,-9.966873779E0,-2.002835083E0,1.022851053E1
6.204170583E0,-1.156794434E0,-9.687255249E0,-1.450783081E0,9.863359426E0
6.214110583E0,-1.241218872E0,-9.459279327E0,-9.690847778E-1,9.589458535E0
6.224050583E0,-1.302441559E0,-9.412576447E0,-6.406677246E-1,9.523833499E0
6.233990583E0,-1.420246582E0,-9.706116028E0,-4.742138672E-1,9.820930073E0
6.243929583E0,-1.521885223E0,-1.003752686E1,-1.454974365E-1,1.015328762E1
6.253869583E0,-1.402882690E0,-1.023676254E1,2.944377136E-1,1.033663779E1
6.263809583E0,-1.117126923E0,-1.026460464E1,5.590873718E-1,1.034034138E1
6.273749583E0,-6.559359741E-1,-1.028062134E1,6.707551575E-1,1.032333956E1
6.283689583E0,-4.694238281E-1,-1.034588562E1,6.270460510E-1,1.037549492E1
6.293629583E0,-4.722679138E-1,-1.028645920E1,5.110372925E-1,1.030996794E1
6.303568583E0,-5.102888489E-1,-1.002929398E1,7.156617737E-1,1.006773580E1
6.313508583E0,-5.011578369E-1,-9.777218170E0,2.110161896E0,1.001488580E1
6.323448583E0,-4.038601685E-1,-9.628577271E0,4.326902161E0,1.056383858E1
6.333388583E0,-4.134402466E-1,-9.657167816E0,5.549859009E0,1.114597497E1
6.343328583E0,-5.408253479E-1,-9.861492920E0,4.749922485E0,1.095916504E1
6.353267583E0,-5.315446472E-1,-9.861343231E0,2.541864166E0,1.019753419E1
6.363207583E0,-5.861810303E-1,-9.713750153E0,1.196012878E-1,9.732155706E0
6.373147583E0,-8.669970703E-1,-9.443412323E0,-1.579964447E0,9.613844594E0
6.383087583E0,-8.807684326E-1,-9.239236908E0,-2.085912323E0,9.512638009E0
6.393027583E0,-7.966433716E-1,-9.195078735E0,-1.972298584E0,9.437906299E0
6.402966583E0,-7.520361328E-1,-9.062903595E0,-2.044598236E0,9.321060126E0
6.412906583E0,-6.066883850E-1,-8.760532379E0,-2.096839600E0,9.028384942E0
6.422846583E0,-2.420466614E-1,-8.658145294E0,-2.483036499E0,9.010412686E0
6.432786583E0,1.216969299E-1,-8.562793579E0,-3.086431732E0,9.102873440E0
6.442726583E0,4.710704041E-1,-8.416697388E0,-3.317850494E0,9.059295455E0
6.452665583E0,7.319778442E-1,-8.438102875E0,-3.459156647E0,9.148941818E0
6.462605583E0,1.172661438E0,-8.597970428E0,-3.625011749E0,9.404304361E0
6.472545583E0,1.720971222E0,-8.697513428E0,-3.566483459E0,9.556583387E0
6.482485583E0,2.319277039E0,-8.900042267E0,-3.455264740E0,9.824899631E0
6.492425583E0,2.873873749E0,-9.195078735E0,-3.303929443E0,1.018452616E1
6.502364167E0,3.287463684E0,-9.551487579E0,-2.781366119E0,1.047732456E1
6.512304167E0,3.575764160E0,-9.959389343E0,-2.068847809E0,1.078219165E1
6.522244167E0,3.711681519E0,-1.024634262E1,-1.275048523E0,1.097223157E1
6.532184167E0,3.690575409E0,-1.040306671E1,-5.671705627E-1,1.105286507E1
6.542124167E0,3.476221161E0,-1.051712952E1,-3.817062378E-2,1.107680386E1
6.552064167E0,3.083737335E0,-1.060185333E1,2.992277527E-1,1.104528258E1
6.562003167E0,2.335293732E0,-1.066861450E1,4.278103638E-1,1.092959075E1
6.571943167E0,1.430126038E0,-1.068223618E1,1.410067749E-1,1.077846525E1
6.581883167E0,7.967930603E-1,-1.046578629E1,-4.029620361E-1,1.050380598E1
6.591823167E0,3.188369751E-1,-1.015578094E1,-1.040935364E0,1.021396544E1
6.601763167E0,-2.230361938E-1,-1.005998016E1,-1.672172699E0,1.020044644E1
6.611702167E0,-8.575666809E-1,-1.020023849E1,-2.193388824E0,1.046858350E1
6.621642167E0,-1.525477753E0,-1.045905029E1,-2.667003937E0,1.090099653E1
6.631582167E0,-2.181713104E0,-1.075513458E1,-3.101550293E0,1.140405218E1
6.641522167E0,-2.849923553E0,-1.099867813E1,-3.462898865E0,1.187790611E1
6.651462167E0,-3.539689178E0,-1.110570557E1,-3.732937317E0,1.223931847E1
6.661402167E0,-4.132606201E0,-1.106798401E1,-3.799399109E0,1.241024325E1
6.671341167E0,-4.510869598E0,-1.081396225E1,-3.512894897E0,1.223234052E1
6.681281167E0,-4.524940338E0,-1.035172348E1,-2.806214447E0,1.164079480E1
6.691221167E0,-4.395309906E0,-9.789492645E0,-1.869612122E0,1.089258302E1
6.701161167E0,-4.119134216E0,-9.511969757E0,-1.047821045E0,1.041838588E1
6.711101167E0,-3.550017700E0,-9.517957306E0,-3.522175598E-1,1.016455578E1
6.721040167E0,-2.981649628E0,-9.915829926E0,1.182540894E-1,1.035509061E1
6.730980167E0,-2.477348328E0,-1.064226929E1,1.758842468E-1,1.092822426E1
6.740920167E0,-2.048939209E0,-1.131811386E1,-1.484912109E-1,1.150303885E1
6.750860167E0,-1.673370209E0,-1.179996185E1,-6.125262451E-1,1.193375280E1
6.760800167E0,-1.335971832E0,-1.205503143E1,-9.413923645E-1,1.216531229E1
6.770739167E0,-1.005159760E0,-1.208661575E1,-9.792636108E-1,1.216780932E1
6.780679167E0,-7.209008789E-1,-1.196267349E1,-6.496490479E-1,1.200197063E1
6.790619167E0,-3.995191956E-1,-1.186238205E1,-6.810836792E-2,1.186930336E1
6.800559167E0,1.618135071E-1,-1.195189590E1,8.548722839E-1,1.198352227E1
6.810499167E0,8.625064087E-1,-1.205069046E1,2.583178253E0,1.235458894E1
6.820438167E0,1.257834320E0,-1.204754700E1,4.101920013E0,1.278871704E1
6.830378167E0,1.102756805E0,-1.200892731E1,3.619024200E0,1.259078011E1
6.840318167E0,1.130449219E0,-1.150612289E1,1.909878387E0,1.171820869E1
6.850258167E0,1.634451141E0,-1.064780777E1,2.567161560E-1,1.077558091E1
6.860198167E0,2.168690186E0,-1.028286667E1,-1.316362610E0,1.059119326E1
6.870137167E0,2.971321106E0,-1.050814819E1,-2.623594208E0,1.123090264E1
6.880077167E0,3.989803162E0,-1.134371063E1,-3.362607422E0,1.248620955E1
6.890017167E0,4.973856812E0,-1.227432541E1,-3.869453430E0,1.379749925E1
6.899957167E0,5.419929199E0,-1.302935532E1,-4.376299438E0,1.477469896E1
6.909897167E0,5.711672516E0,-1.337154373E1,-4.806205444E0,1.531407834E1
6.919836167E0,5.954018555E0,-1.332558929E1,-5.034031677E0,1.543901363E1
6.929776167E0,6.115233307E0,-1.271006927E1,-5.165608063E0,1.502083373E1
6.939716167E0,6.347101135E0,-1.150357819E1,-4.305047607E0,1.382575274E1
6.949656167E0,5.549709320E0,-1.013048355E1,-1.771566010E0,1.168607790E1
6.959596167E0,4.072281647E0,-9.523645477E0,1.104253693E0,1.041646184E1
6.969535167E0,2.396965485E0,-9.632618866E0,2.719245300E0,1.029208845E1
6.979475167E0,1.482816467E0,-9.779613190E0,3.001707916E0,1.033681911E1
6.989415167E0,1.083147583E0,-9.946067047E0,1.701511688E0,1.014852701E1
6.999355167E0,6.842271423E-1,-9.968520355E0,-9.015751648E-1,1.003256710E1
7.009295167E0,-3.427871704E-2,-1.005668701E1,-2.773432617E0,1.043216455E1
7.019234167E0,-1.153351593E0,-1.010758118E1,-2.673590240E0,1.051862643E1
7.029174167E0,-2.355352020E0,-1.026250900E1,-7.990383911E-1,1.055960399E1
7.039114167E0,-3.177741852E0,-1.034139496E1,1.025816803E0,1.086714282E1
7.049054167E0,-3.099604340E0,-1.019859192E1,9.225315857E-1,1.069906018E1
7.058994167E0,-2.382295990E0,-1.016566040E1,2.140548706E-2,1.044109399E1
7.068934167E0,-1.104104004E0,-1.023571472E1,-3.866459656E-1,1.030234908E1
7.078873167E0,5.227130127E-1,-1.011955627E1,-3.146456909E-1,1.013793125E1
7.088813167E0,1.894310760E0,-9.651779022E0,-9.430389404E-3,9.835920927E0
7.098753167E0,3.021167450E0,-9.099577332E0,4.939727783E-2,9.588128100E0
7.108693167E0,3.488046570E0,-8.275540924E0,2.167492676E-1,8.983208041E0
7.118633167E0,3.730991364E0,-7.278164978E0,4.430786133E-1,8.190744817E0
7.128572167E0,4.071682892E0,-6.287824402E0,3.403921509E-1,7.498746835E0
7.138512167E0,4.479434967E0,-5.339546356E0,1.312770081E-1,6.970891375E0
7.148452167E0,4.814588013E0,-4.522545319E0,-9.445358276E-2,6.606254262E0
7.158392167E0,5.070256348E0,-3.977828064E0,-3.674858093E-1,6.454894372E0
7.168332167E0,5.216202850E0,-3.764371948E0,-3.760180664E-1,6.443652530E0
7.178271167E0,5.288502502E0,-3.977828064E0,-3.576063538E-1,6.627160563E0
7.188211167E0,5.130281525E0,-4.371958466E0,-2.622546387E-1,6.745560528E0
7.198151167E0,4.781207428E0,-4.847070465E0,-4.445755005E-2,6.808525027E0
7.208091167E0,4.253105621E0,-5.293442230E0,4.203259277E-1,6.803389740E0
7.218031167E0,3.583847351E0,-5.789510651E0,1.533261566E0,6.979490414E0
7.227970167E0,2.507585449E0,-6.608008575E0,3.657194824E0,7.957941700E0
7.237910167E0,6.727011108E-1,-7.897876282E0,6.179150391E0,1.005041671E1
7.247850167E0,-1.805844727E0,-9.351353760E0,6.590345306E0,1.158194904E1
7.257790167E0,-4.129313049E0,-1.098056580E1,4.741839294E0,1.265342212E1
7.267730167E0,-6.211034088E0,-1.272548721E1,2.618953857E0,1.440048223E1
7.277669167E0,-8.843759308E0,-1.458521988E1,3.517684937E-1,1.706061132E1
7.287609167E0,-1.131556915E1,-1.629361725E1,-1.294208679E0,1.987961379E1
7.297549167E0,-1.300256104E1,-1.691497513E1,-2.282453613E0,2.145676051E1
7.307489167E0,-1.434766388E1,-1.629466507E1,-1.749112701E0,2.178143622E1
7.317429167E0,-1.423644516E1,-1.442205917E1,-1.072968750E0,2.029343302E1
7.327368167E0,-1.289927582E1,-1.188124283E1,-6.062393188E-1,1.754772845E1
7.337308167E0,-1.112007568E1,-1.024768982E1,1.683998108E-1,1.512281681E1
7.347248167E0,-8.530311127E0,-1.047491730E1,9.867480469E-1,1.354487992E1
7.357188167E0,-5.718707886E0,-1.040142014E1,1.592687988E0,1.197621876E1
7.367128167E0,-3.340154114E0,-1.001567230E1,2.350861359E0,1.081650915E1
7.377068167E0,-1.816772003E0,-9.833950195E0,2.597398682E0,1.033216903E1
7.387007167E0,-9.692344666E-1,-9.958940277E0,2.041305084E0,1.021209251E1
7.396947167E0,-6.245013428E-1,-1.075827805E1,1.284927979E0,1.085272262E1
7.406887167E0,-7.940986633E-1,-1.207973007E1,1.059945831E0,1.215211737E1
7.416827167E0,-1.094972992E0,-1.330089066E1,6.376739502E-1,1.336111096E1
7.426767167E0,-8.783734131E-1,-1.371882156E1,1.751358032E-2,1.374692372E1
7.436706167E0,-1.547781372E-1,-1.346674576E1,-9.077124023E-1,1.349819023E1
7.446646167E0,5.300477600E-1,-1.287382874E1,-2.249671783E0,1.307965749E1
7.456586167E0,1.353036346E0,-1.145208527E1,-2.965183868E0,1.190685851E1
7.466526167E0,2.162852325E0,-9.742041321E0,-1.640588379E0,1.011320075E1
7.476466167E0,2.330354004E0,-8.434360657E0,6.268963623E-1,8.772798215E0
7.486405167E0,2.048939209E0,-7.610773315E0,1.173409882E0,7.968620526E0
7.496345167E0,2.085014191E0,-7.414830780E0,-1.592687988E-1,7.704048690E0
7.506284958E0,2.515219574E0,-7.797584839E0,-1.355131989E0,8.304519344E0
7.516224958E0,3.229234772E0,-8.523575134E0,-1.266067200E0,9.202294085E0
7.526164958E0,3.815116425E0,-9.079968109E0,-3.927832031E-1,9.856734390E0
7.536103958E0,4.045936432E0,-9.402547302E0,1.844165039E-1,1.023774911E1
7.546043958E0,3.953578491E0,-9.589358826E0,2.173480225E-1,1.037467232E1
7.555983958E0,3.709286499E0,-9.506580963E0,1.053808594E-1,1.020514542E1
7.565923958E0,3.394491119E0,-9.332942047E0,-7.888595581E-2,9.931394676E0
7.575863958E0,2.976410522E0,-9.245074768E0,-3.417393494E-1,9.718395590E0
7.585802958E0,2.471211090E0,-9.358688507E0,-6.077362061E-1,9.698519378E0
7.595742958E0,1.991458740E0,-9.648934937E0,-8.656498718E-1,9.890257986E0
7.605682958E0,1.618733826E0,-9.791588287E0,-1.035696259E0,9.978384996E0
7.615622958E0,1.242865448E0,-9.748178558E0,-1.251697083E0,9.906485013E0
7.625562958E0,8.967851257E-1,-9.670789490E0,-1.589394836E0,9.841471885E0
7.635501958E0,5.701643372E-1,-9.573042755E0,-2.019899597E0,9.800419856E0
7.645441958E0,4.270619202E-1,-9.407187653E0,-2.479144592E0,9.737747138E0
7.655381958E0,4.376898193E-1,-9.354347534E0,-2.621797943E0,9.724670412E0
7.665321958E0,4.360432434E-1,-9.413175201E0,-2.469863892E0,9.741572190E0
7.675261958E0,4.173321533E-1,-9.542206879E0,-2.280807037E0,9.819875711E0
7.685200958E0,3.903881836E-1,-9.824370117E0,-2.081870728E0,1.005011626E1
7.695140958E0,4.174818420E-1,-1.016865417E1,-1.847458191E0,1.034354488E1
7.705080958E0,5.120851135E-1,-1.045845154E1,-1.587897949E0,1.059069684E1
7.715020958E0,6.593788147E-1,-1.055739578E1,-1.337319031E0,1.066216715E1
7.724960958E0,8.901988220E-1,-1.049692154E1,-1.126856689E0,1.059469781E1
7.734899958E0,1.171613617E0,-1.028840515E1,-9.518705750E-1,1.039855839E1
7.744839958E0,1.454225922E0,-9.930948486E0,-8.885522461E-1,1.007611215E1
7.754779958E0,1.625619507E0,-9.508077850E0,-1.002315674E0,9.697980197E0
7.764719958E0,1.710343323E0,-9.177565155E0,-1.187779999E0,9.410834064E0
7.774659958E0,1.721420288E0,-8.970994720E0,-1.396745453E0,9.240829613E0
7.784598958E0,1.653012543E0,-8.989855499E0,-1.598974915E0,9.279368143E0
7.794538958E0,1.455722809E0,-9.190737762E0,-1.862427063E0,9.489859013E0
7.804478958E0,1.139131165E0,-9.374106445E0,-2.136956177E0,9.681842447E0
7.814418958E0,8.367599487E-1,-9.387129364E0,-2.325114899E0,9.706931760E0
7.824358958E0,4.662803650E-1,-9.195378113E0,-2.404449921E0,9.515974750E0
7.834297958E0,1.522334290E-1,-8.948990479E0,-2.386636963E0,9.263025510E0
7.844237958E0,-9.056167603E-2,-8.732839966E0,-2.294728088E0,9.029754830E0
7.854177958E0,-3.237767029E-1,-8.630153503E0,-2.172582092E0,8.905307058E0
7.864117958E0,-5.483097839E-1,-8.544232178E0,-2.078876953E0,8.810577536E0
7.874057958E0,-7.743397522E-1,-8.481063538E0,-1.960173798E0,8.739011506E0
7.883996958E0,-9.940827942E-1,-8.585097198E0,-1.848206635E0,8.837870913E0
7.893936958E0,-1.223854980E0,-8.937913513E0,-1.729653168E0,9.185631119E0
7.903876958E0,-1.471889191E0,-9.617799683E0,-1.574276276E0,9.856311395E0
7.913816958E0,-1.686393127E0,-1.045171555E1,-1.441801758E0,1.068461847E1
7.923756958E0,-1.952539673E0,-1.133098709E1,-1.384620667E0,1.158105583E1
7.933696958E0,-2.319426727E0,-1.209799210E1,-1.436712341E0,1.240182629E1
7.943635958E0,-2.766247559E0,-1.242386444E1,-1.379830627E0,1.280267416E1
7.953575958E0,-3.121907959E0,-1.215756821E1,-1.066831512E0,1.259725778E1
7.963515958E0,-3.306174774E0,-1.142978165E1,-7.167095947E-1,1.191991496E1
7.973455958E0,-3.273392944E0,-1.049138306E1,-4.698728943E-1,1.100022729E1
7.983395958E0,-3.147055664E0,-9.547296295E0,-2.869532776E-1,1.005669767E1
7.993334958E0,-3.028801575E0,-8.780590668E0,-1.368154907E-1,9.289301908E0
8.003274958E0,-2.945424957E0,-8.345894623E0,2.095642090E-2,8.850419448E0
8.013214958E0,-2.863096161E0,-8.315657501E0,2.468367004E-1,8.798204798E0
8.023154958E0,-2.527044983E0,-8.699160004E0,6.125262451E-1,9.079456455E0
8.033094958E0,-2.050585785E0,-9.342222748E0,1.289268951E0,9.651126481E0
8.043033958E0,-1.551673279E0,-9.861492920E0,1.776206360E0,1.013960757E1
8.052973958E0,-1.223705292E0,-1.017973114E1,1.664987640E0,1.038732711E1
8.062913958E0,-1.045426025E0,-1.030801437E1,1.147663422E0,1.042426051E1
8.072853958E0,-9.666897583E-1,-1.031594788E1,4.900808716E-1,1.037272621E1
8.082793958E0,-9.398954773E-1,-1.022972717E1,-1.781295776E-1,1.027435894E1
8.092732958E0,-9.340576172E-1,-1.023781036E1,-5.782475281E-1,1.029658171E1
8.102672958E0,-8.183482361E-1,-1.033555710E1,-6.969506836E-1,1.039130284E1
8.112612958E0,-5.029541016E-1,-1.038645126E1,-5.885760498E-1,1.041526545E1
8.122552958E0,-1.966909790E-1,-1.039303757E1,-4.728666687E-1,1.040564847E1
8.132492958E0,-1.127156067E-1,-1.021850052E1,-5.222639465E-1,1.023245901E1
8.142431958E0,-4.625381470E-2,-1.009455826E1,-6.056405640E-1,1.011281594E1
8.152371958E0,-3.113525391E-2,-1.002495300E1,-6.704557800E-1,1.004739584E1
8.162311958E0,2.694396973E-3,-9.929750977E0,-7.717950439E-1,9.959700262E0
8.172251958E0,-1.631607056E-1,-1.000264938E1,-7.524851990E-1,1.003224053E1
8.182191958E0,-5.472619629E-1,-1.021056702E1,-7.198530579E-1,1.025052988E1
8.192130958E0,-1.037043457E0,-1.049766998E1,-7.339237976E-1,1.057426964E1
8.202070958E0,-1.458866272E0,-1.089060287E1,-7.409591675E-1,1.101283534E1
8.212010958E0,-1.815574493E0,-1.140044266E1,-7.653584290E-1,1.156945016E1
8.221950958E0,-2.218386841E0,-1.193617859E1,-7.455995178E-1,1.216345009E1
8.231890958E0,-2.779719543E0,-1.245095810E1,-2.222877502E-1,1.275941261E1
8.241829958E0,-3.521127777E0,-1.274853928E1,1.954934692E0,1.336956858E1
8.251769958E0,-3.676055603E0,-1.282667679E1,4.852010193E0,1.419785284E1
8.261709958E0,-2.872376862E0,-1.281754578E1,6.240822144E0,1.454262320E1
8.271649958E0,-1.820065155E0,-1.285661453E1,6.132746887E0,1.436021444E1
8.281589958E0,-8.117619324E-1,-1.264226028E1,5.140310669E0,1.367144822E1
8.291528958E0,5.990542603E-1,-1.219020035E1,3.882027283E0,1.280741919E1
8.301468958E0,1.817221069E0,-1.139131165E1,3.219654694E0,1.197624523E1
8.311408958E0,2.551893311E0,-1.038615189E1,4.154760132E0,1.147372399E1
8.321348958E0,2.930905151E0,-1.007943970E1,4.172872467E0,1.129593618E1
8.331287958E0,3.093616791E0,-1.036040543E1,2.733016663E0,1.115248159E1
8.341227958E0,3.228336639E0,-1.080812439E1,7.863148499E-1,1.130734281E1
8.351167958E0,3.306773529E0,-1.116228790E1,-7.264393616E-1,1.166443897E1
8.361107958E0,3.367547150E0,-1.152468430E1,-1.765129395E0,1.213566659E1
8.371047958E0,3.325783997E0,-1.197719330E1,-2.742596741E0,1.272932973E1
8.380987958E0,3.235671387E0,-1.246877106E1,-3.415297852E0,1.332681809E1
8.390926958E0,2.793790283E0,-1.281455200E1,-3.604354706E0,1.360181532E1
8.400866958E0,1.771566010E0,-1.296528854E1,-3.533102875E0,1.355433396E1
8.410806958E0,4.294569397E-1,-1.274494675E1,-3.161276093E0,1.313817976E1
8.420746958E0,-8.939410400E-1,-1.224378891E1,-1.900597687E0,1.242263132E1
8.430685958E0,-2.210004272E0,-1.149729126E1,4.602928162E-1,1.171681248E1
8.440625958E0,-3.131787415E0,-1.049796936E1,2.753823395E0,1.129597257E1
8.450565958E0,-2.797382812E0,-9.688901825E0,3.635040894E0,1.071978038E1
8.460505958E0,-1.342558136E0,-9.352551270E0,2.899620209E0,9.883343308E0
8.470445958E0,-1.646575928E-3,-9.083410950E0,1.902094574E0,9.280426766E0
8.480385958E0,1.041683807E0,-8.722810822E0,1.027014313E0,8.844619392E0
8.490324958E0,1.864822083E0,-8.322992249E0,1.082997894E0,8.597827970E0
8.500264958E0,2.263892212E0,-8.110883331E0,2.459086304E0,8.772613169E0
8.510205208E0,2.139500885E0,-8.098908234E0,2.435285797E0,8.723554065E0
8.520145208E0,1.843566284E0,-7.994126129E0,1.241967316E0,8.297425626E0
8.530084208E0,1.223555603E0,-7.761509857E0,1.484912109E-1,7.858764102E0
8.540024208E0,6.484515381E-1,-7.452103271E0,-8.253836060E-1,7.525662141E0
8.549964208E0,2.323168945E-1,-7.124883728E0,-1.549577637E0,7.295144284E0
8.559904208E0,3.757186890E-2,-6.891818390E0,-1.648222504E0,7.086269102E0
8.569844208E0,4.236190796E-2,-6.794371033E0,-1.246158600E0,6.907834937E0
8.579783208E0,2.553689575E-1,-6.720424805E0,-8.003855896E-1,6.772735042E0
8.589723208E0,5.686674500E-1,-6.612499237E0,-5.032534790E-1,6.655959202E0
8.599663208E0,8.750802612E-1,-6.488856354E0,-4.156855774E-1,6.560778669E0
8.609603208E0,1.136287079E0,-6.424490204E0,-4.402345276E-1,6.539038855E0
8.619543208E0,1.088386688E0,-6.491401062E0,-4.493655396E-1,6.597333000E0
8.629482208E0,8.213420105E-1,-6.625821533E0,-4.514611816E-1,6.691780846E0
8.639422208E0,4.155358887E-1,-6.802154846E0,-4.201762390E-1,6.827776263E0
8.649362208E0,-4.939727783E-3,-6.966513062E0,-2.576142883E-1,6.971276336E0
8.659302208E0,-3.839515686E-1,-7.063211975E0,-1.131646729E-1,7.074545106E0
8.669242208E0,-6.845265198E-1,-7.079378357E0,-1.380130005E-1,7.113734748E0
8.679181208E0,-9.879455566E-1,-7.071744232E0,-1.779798889E-1,7.142638151E0
8.689121208E0,-1.392554169E0,-7.299420776E0,-2.380050659E-2,7.431104712E0
8.699061208E0,-1.895059204E0,-7.879763947E0,3.836521912E-1,8.113514543E0
8.709001208E0,-2.761607208E0,-8.642727356E0,1.123862915E0,9.142553165E0
8.718941208E0,-4.148922272E0,-9.654772797E0,1.945653992E0,1.068708394E1
8.728880208E0,-5.849535828E0,-1.089599167E1,2.541564789E0,1.262534179E1
8.738820208E0,-7.699688416E0,-1.206700653E1,2.787353668E0,1.458311314E1
8.748760208E0,-9.554930420E0,-1.285257294E1,2.824027405E0,1.626224023E1
8.758700208E0,-1.105720642E1,-1.330657883E1,2.614612885E0,1.749751566E1
8.768640208E0,-1.202913528E1,-1.338741074E1,2.460882568E0,1.816531874E1
8.778579208E0,-1.205922272E1,-1.320434143E1,3.041974182E0,1.813926934E1
8.788519208E0,-1.117995117E1,-1.269180725E1,3.049757996E0,1.718645697E1
8.798459208E0,-9.238039398E0,-1.203617065E1,2.450104980E0,1.536924820E1
8.808399208E0,-6.684649200E0,-1.149145340E1,1.736838226E0,1.340726084E1
8.818339208E0,-4.032913513E0,-1.080587906E1,1.470991058E0,1.162734829E1
8.828278208E0,-1.628313904E0,-1.012419662E1,1.388063507E0,1.034782507E1
8.838218208E0,2.451901245E-1,-9.527986450E0,1.188827820E0,9.604996386E0
8.848158208E0,1.474882965E0,-9.180409241E0,9.810598755E-1,9.349741818E0
8.858098208E0,2.169588318E0,-9.407337341E0,7.749385071E-1,9.685331126E0
8.868038208E0,2.416574707E0,-1.041384430E1,6.804849243E-1,1.071219147E1
8.877977208E0,2.453996887E0,-1.162168259E1,1.015338593E0,1.192126333E1
8.887917208E0,2.022893372E0,-1.222582626E1,1.393901367E0,1.247019994E1
8.897857208E0,6.240522766E-1,-1.186956711E1,1.291364594E0,1.195590595E1
8.907797208E0,-1.987267456E0,-1.090886490E1,1.597178650E-1,1.108954801E1
8.917737208E0,-4.339775391E0,-1.010324020E1,-1.332079926E0,1.107626065E1
8.927676208E0,-5.409001923E0,-9.849218445E0,-1.894161072E0,1.139527323E1
8.937616208E0,-5.169499969E0,-1.006237518E1,-1.561103668E0,1.141981475E1
8.947556208E0,-3.952380981E0,-1.022778122E1,-6.460565186E-1,1.098390701E1
8.957496208E0,-1.845212860E0,-1.012674133E1,2.347119141E-1,1.029615415E1
8.967436208E0,4.674778748E-1,-9.986183624E0,1.463656311E0,1.010369679E1
8.977375208E0,2.192191315E0,-9.871522064E0,3.298840027E0,1.063649360E1
8.987315208E0,3.062182159E0,-9.598789215E0,4.900060272E0,1.120376297E1
8.997255208E0,3.358116760E0,-9.284742279E0,4.449347534E0,1.082959283E1
9.007195208E0,2.916535034E0,-8.913514252E0,1.945204926E0,9.578138395E0
9.017135208E0,2.073637848E0,-8.581953735E0,-1.511856079E-1,8.830218623E0
9.027074208E0,1.217867432E0,-8.409063263E0,-1.129251709E0,8.571508354E0
9.037014208E0,9.783654785E-1,-8.295000458E0,-1.265468445E0,8.447818771E0
9.046954208E0,9.900411987E-1,-8.364456024E0,-1.360371094E0,8.531993651E0
9.056894208E0,8.942404175E-1,-8.575517120E0,-1.786385193E0,8.805130996E0
9.066834208E0,5.809419250E-1,-8.989556122E0,-2.478096771E0,9.342942598E0
9.076773208E0,6.182144165E-2,-9.498348083E0,-3.040926361E0,9.973448317E0
9.086713208E0,-3.887416077E-1,-9.852361908E0,-3.230881348E0,1.037587343E1
9.096653208E0,-6.248007202E-1,-9.971963196E0,-3.308719482E0,1.052511523E1
9.106593208E0,-5.397775269E-1,-9.873617706E0,-3.094215546E0,1.036117060E1
9.116533208E0,-4.656816101E-1,-9.850116577E0,-2.609224091E0,1.020047579E1
9.126472208E0,-5.131329346E-1,-9.922116852E0,-2.085762634E0,1.015195124E1
9.136412208E0,-5.734574890E-1,-9.986932068E0,-1.733545074E0,1.015247970E1
9.146352208E0,-5.230123901E-1,-9.983638916E0,-1.468296661E0,1.010457733E1
9.156292208E0,-3.790118408E-1,-9.886341248E0,-1.252595215E0,9.972581813E0
9.166232208E0,-1.712438965E-1,-9.697583771E0,-1.060544586E0,9.756905774E0
9.176171208E0,3.233276367E-2,-9.541757812E0,-8.943901062E-1,9.583638204E0
9.186111208E0,2.330653381E-1,-9.456734619E0,-7.195536804E-1,9.486933467E0
9.196051208E0,4.113446045E-1,-9.357790375E0,-6.378236389E-1,9.388517672E0
9.205991208E0,6.511459351E-1,-9.292675781E0,-5.854325867E-1,9.333838734E0
9.215931208E0,8.590635681E-1,-9.184151459E0,-5.638774109E-1,9.241460164E0
9.225870208E0,9.666897583E-1,-9.092841339E0,-6.324348450E-1,9.165927478E0
9.235810208E0,9.759704590E-1,-9.094188538E0,-7.379653931E-1,9.176130798E0
9.245750208E0,9.707313538E-1,-9.201814728E0,-9.021739197E-1,9.296753811E0
9.255690208E0,1.073118439E0,-9.375453644E0,-9.542655945E-1,9.484795044E0
9.265630208E0,1.190624084E0,-9.542655945E0,-8.313711548E-1,9.652515019E0
9.275569208E0,1.228944397E0,-9.657766571E0,-6.638694763E-1,9.758252003E0
9.285509208E0,1.187630310E0,-9.556876373E0,-5.239105225E-1,9.644627209E0
9.295449208E0,1.046324158E0,-9.447603607E0,-4.303550720E-1,9.515104500E0
9.305389208E0,7.379653931E-1,-9.367071075E0,-3.606001282E-1,9.403012597E0
9.315329208E0,3.456312561E-1,-9.468410339E0,-3.421884155E-1,9.480893852E0
9.325268208E0,-2.649490356E-2,-9.616452484E0,-3.588038635E-1,9.623180377E0
9.335208208E0,-3.209326172E-1,-9.754615173E0,-3.881428528E-1,9.767608192E0
9.345148208E0,-5.346881104E-1,-9.878108368E0,-3.847000122E-1,9.900045980E0
9.355088208E0,-6.545887756E-1,-1.004665787E1,-3.213816833E-1,1.007308825E1
9.365028208E0,-8.107141113E-1,-1.010054581E1,-2.179467773E-1,1.013537290E1
9.374967208E0,-9.542655945E-1,-1.009635452E1,-8.337661743E-2,1.014169360E1
9.384907208E0,-9.773176575E-1,-1.009815079E1,4.730163574E-2,1.014544413E1
9.394847208E0,-9.539662170E-1,-1.000294876E1,1.760339355E-1,1.004987679E1
9.404787208E0,-7.903564453E-1,-9.815688171E0,3.020718384E-1,9.852088356E0
9.414727208E0,-6.779402161E-1,-9.639654236E0,3.978726196E-1,9.671651325E0
9.424666208E0,-4.929249573E-1,-9.457782440E0,4.872367859E-1,9.483144172E0
9.434606208E0,-2.787203979E-1,-9.433532867E0,5.535488892E-1,9.453869250E0
9.444546208E0,-4.445755005E-2,-9.567354584E0,6.620732117E-1,9.590338427E0
9.454486208E0,1.872605896E-1,-9.809251556E0,7.426057434E-1,9.839102902E0
9.464426208E0,3.420387268E-1,-9.997110901E0,7.066804504E-1,1.002789181E1
9.474365208E0,3.659889221E-1,-9.906249847E0,5.050497437E-1,9.925865664E0
9.484305208E0,2.872526550E-1,-9.672136688E0,1.788780212E-1,9.678054533E0
9.494245208E0,2.204914856E-1,-9.448352051E0,-1.188528442E-1,9.451671755E0
9.504185167E0,1.357676697E-1,-9.326355743E0,-3.950285339E-1,9.335705215E0
9.514125167E0,2.978805542E-2,-9.317524109E0,-6.735992432E-1,9.341888395E0
9.524064167E0,-1.047821045E-2,-9.263785858E0,-1.018931122E0,9.319659803E0
9.534004167E0,-1.122665405E-1,-9.246571655E0,-1.407523041E0,9.353759258E0
9.543944167E0,-1.411564636E-1,-9.251511383E0,-1.676813049E0,9.403302081E0
9.553884167E0,-5.284011841E-2,-9.360185394E0,-1.764081573E0,9.525116613E0
9.563824167E0,1.354682922E-1,-9.439670105E0,-1.814227295E0,9.613383589E0
9.573763167E0,4.167333984E-1,-9.449998627E0,-1.816472626E0,9.632015032E0
9.583703167E0,7.569758606E-1,-9.445957031E0,-1.773062897E0,9.640688187E0
9.593643167E0,1.048270111E0,-9.492061157E0,-1.712289276E0,9.702063173E0
9.603583167E0,1.176403656E0,-9.664801941E0,-1.710343323E0,9.885221110E0
9.613523167E0,1.163979492E0,-1.005354355E1,-1.867217102E0,1.029150552E1
9.623462167E0,1.062041473E0,-1.052880524E1,-2.102677460E0,1.078911138E1
9.633402167E0,9.482780457E-1,-1.097218323E1,-2.371069336E0,1.126543412E1
9.643342167E0,7.450007629E-1,-1.131811386E1,-2.692600708E0,1.165782253E1
9.653282167E0,3.333567810E-1,-1.164114212E1,-3.061733093E0,1.204165795E1
9.663222167E0,-2.137554932E-1,-1.208392136E1,-3.257675629E0,1.251716011E1
9.673161167E0,-6.831793213E-1,-1.267728745E1,-3.119962006E0,1.307342778E1
9.683101167E0,-1.195264435E0,-1.316362610E1,-2.648891602E0,1.348059108E1
9.693041167E0,-1.775008850E0,-1.341390564E1,-2.062710571E0,1.368715806E1
9.702981167E0,-2.241289215E0,-1.349743195E1,-1.565594330E0,1.377153340E1
9.712920167E0,-2.576142883E0,-1.341615097E1,-1.190923462E0,1.371305647E1
9.722860167E0,-2.849474487E0,-1.315239944E1,-9.008267212E-1,1.348764638E1
9.732800167E0,-3.040626984E0,-1.268432281E1,-6.423143005E-1,1.305948029E1
9.742740167E0,-3.145409088E0,-1.212403793E1,-3.484753418E-1,1.253025655E1
9.752680167E0,-3.188369751E0,-1.154818542E1,1.127156067E-1,1.198077598E1
9.762619167E0,-3.471730499E0,-1.116902390E1,2.659369812E0,1.199467612E1
9.772559167E0,-3.243455200E0,-1.072235275E1,6.700067139E0,1.305295943E1
9.782499167E0,-2.614014130E0,-1.009845016E1,8.350235596E0,1.336181874E1
9.792439167E0,-2.181862793E0,-9.580826569E0,7.806266785E0,1.254952446E1
9.802379167E0,-1.450034637E0,-8.906029816E0,6.881938934E0,1.134817391E1
9.812318167E0,-4.782554626E-1,-8.528664551E0,5.195396118E0,9.997949196E0
9.822258167E0,5.535488892E-1,-8.876840515E0,1.269360352E0,8.984207790E0
9.832198167E0,2.159110107E0,-9.247918854E0,1.553768921E-1,9.497889321E0
9.842138167E0,3.075803833E0,-1.013662079E1,1.411564636E-1,1.059394050E1
9.852078167E0,2.976410522E0,-1.156824371E1,-6.150709534E-1,1.196083586E1
9.862017167E0,2.724634094E0,-1.285811142E1,-1.233135681E0,1.320133644E1
9.871957167E0,2.957849121E0,-1.398571655E1,-2.144889679E0,1.445509220E1
9.881897167E0,3.002456360E0,-1.503383698E1,-3.380869446E0,1.569908522E1
9.891837167E0,2.772833862E0,-1.556657913E1,-4.373305664E0,1.640526732E1
9.901777167E0,2.804268494E0,-1.518711823E1,-4.593198395E0,1.611241612E1
9.911716167E0,2.737507324E0,-1.358919113E1,-4.340374146E0,1.452580152E1
9.921656167E0,2.339934082E0,-1.168530029E1,-4.084107056E0,1.259767696E1
9.931596167E0,1.663041687E0,-1.007494904E1,-3.226690063E0,1.070896048E1
9.941536167E0,7.432044983E-1,-9.131311340E0,-1.906585236E0,9.357791779E0
9.951476167E0,6.646179199E-2,-8.798852692E0,-7.212002563E-1,8.828610064E0
9.961415167E0,-5.792953491E-1,-8.640781403E0,-1.995350647E-1,8.662476585E0
9.971355167E0,-8.086184692E-1,-8.660839691E0,-1.655557251E-1,8.700081418E0
9.981295167E0,-5.282514954E-1,-8.743617554E0,-4.764591980E-1,8.772508816E0
9.991235167E0,-1.146615601E-1,-8.917106781E0,-5.679190063E-1,8.935909166E0
1.000117517E1,2.981799316E-1,-9.128616943E0,-2.047741699E-1,9.135780811E0
1.001111417E1,6.747967529E-1,-9.233698425E0,1.547781372E-1,9.259616274E0
1.002105417E1,7.753875732E-1,-9.141041107E0,3.847000122E-1,9.181930762E0
1.003099417E1,7.822732544E-1,-8.794661407E0,3.890409851E-1,8.837950758E0
1.004093417E1,7.033872986E-1,-8.255482635E0,2.234852600E-1,8.288407139E0
1.005087417E1,6.622229004E-1,-7.750432892E0,2.395019531E-2,7.778709584E0
1.006081317E1,7.209008789E-1,-7.298971710E0,-1.842668152E-1,7.336800417E0
1.007075317E1,9.355545044E-1,-6.885681152E0,-4.941224670E-1,6.966492961E0
1.008069317E1,1.395847321E0,-6.571933594E0,-8.928932190E-1,6.777607189E0
1.009063317E1,1.949994965E0,-6.237229614E0,-1.229393463E0,6.649580582E0
1.010057317E1,2.492616577E0,-5.943690033E0,-1.362167358E0,6.587570760E0
1.011051217E1,3.016527100E0,-5.696853333E0,-1.266516266E0,6.569447244E0
1.012045217E1,3.511847076E0,-5.441184998E0,-1.088087311E0,6.566848412E0
1.013039217E1,3.930526428E0,-5.192851410E0,-9.431886292E-1,6.580603966E0
1.014033217E1,4.224515076E0,-5.050347748E0,-8.617579651E-1,6.640419173E0
1.015027217E1,4.248465271E0,-5.211562500E0,-6.316864014E-1,6.753433835E0
1.016021117E1,3.980971527E0,-5.658682709E0,-3.528163147E-1,6.927719946E0
1.017015117E1,3.548969879E0,-6.256689148E0,1.681004333E-1,7.195109732E0
1.018009117E1,3.134930878E0,-7.129374390E0,1.371597748E0,7.908037125E0
1.019003117E1,2.600093079E0,-8.472680969E0,4.180955658E0,9.799346766E0
1.019997117E1,1.015188904E0,-1.020038818E1,8.270152130E0,1.317095076E1
1.020991017E1,-2.004331970E0,-1.193617859E1,9.933792572E0,1.565790346E1
1.021985017E1,-4.794978790E0,-1.367616028E1,7.336543579E0,1.624358499E1
1.022979017E1,-6.702013092E0,-1.510029877E1,2.856060791E0,1.676583089E1
1.023973017E1,-8.433911591E0,-1.607088043E1,2.844085693E-2,1.814951436E1
1.024967017E1,-9.713151398E0,-1.610590759E1,6.451583862E-2,1.880823574E1
1.025960917E1,-1.011790970E1,-1.476813950E1,1.114582214E0,1.793634116E1
1.026954917E1,-9.440867615E0,-1.248134491E1,1.107097778E0,1.568883736E1
1.027948917E1,-8.892258453E0,-1.032672546E1,6.481521606E-1,1.364307958E1
1.028942917E1,-8.863069153E0,-9.492061157E0,5.773493958E-1,1.299948276E1
1.029936917E1,-7.933202820E0,-9.563312988E0,5.782475281E-1,1.243893213E1
1.030930817E1,-6.209686890E0,-9.653275909E0,2.586621094E-1,1.148097788E1
1.031924817E1,-4.666545868E0,-9.929152222E0,-3.490740967E-1,1.097663732E1
1.032918817E1,-3.828139343E0,-9.949659576E0,-6.962022400E-1,1.068340180E1
1.033912817E1,-3.357068939E0,-9.563312988E0,-8.488847351E-1,1.017091306E1
1.034906817E1,-2.997516632E0,-8.954978027E0,-9.382489014E-1,9.489839220E0
1.035900717E1,-2.600242767E0,-8.324040070E0,-8.279283142E-1,8.759929841E0
1.036894717E1,-2.142045593E0,-7.791597290E0,-7.032376099E-1,8.111220056E0
1.037888717E1,-1.760489044E0,-7.826624451E0,-9.874964905E-1,8.082729816E0
1.038882717E1,-1.257984009E0,-8.643475800E0,-1.492246857E0,8.861094647E0
1.039876717E1,-3.694317627E-1,-9.846374359E0,-1.657802582E0,9.991790493E0
1.040870617E1,6.815327454E-1,-1.113998428E1,-1.200802917E0,1.122522447E1
1.041864617E1,1.711241455E0,-1.242670853E1,-2.309696960E-1,1.254610613E1
1.042858617E1,2.563569031E0,-1.331496140E1,1.638343048E0,1.365812033E1
1.043852617E1,2.592458954E0,-1.369082977E1,4.619094543E0,1.467977172E1
1.044846617E1,1.297052765E0,-1.374501709E1,6.673871613E0,1.533454932E1
1.045840517E1,-1.221459961E-1,-1.324909836E1,3.540287933E0,1.371448743E1
1.046834517E1,-5.700146484E-1,-1.205952209E1,-1.735341339E0,1.219706520E1
1.047828517E1,-2.312690735E-1,-1.074839859E1,-4.363575897E0,1.160268729E1
1.048822517E1,5.897735596E-1,-9.894274750E0,-3.069516907E0,1.037624401E1
1.049816517E1,1.084195404E0,-9.317224731E0,-1.463656311E0,9.493600274E0
1.050810429E1,1.561702423E0,-8.594826965E0,-6.979985046E-1,8.763399280E0
1.051804429E1,1.867217102E0,-7.992928619E0,-3.185375977E-1,8.214309090E0
1.052798429E1,1.730850677E0,-7.704628143E0,-2.424957275E-1,7.900376135E0
1.053792429E1,1.529369659E0,-7.603288879E0,-2.740800476E-1,7.760418366E0
1.054786329E1,1.460512848E0,-7.746540985E0,-3.796105957E-1,7.892154282E0
1.055780329E1,1.274150391E0,-8.150700531E0,-6.465055847E-1,8.274983253E0
1.056774329E1,1.121916962E0,-8.475525055E0,-1.085991669E0,8.618155286E0
1.057768329E1,1.010698242E0,-8.627309418E0,-1.620380402E0,8.836153653E0
1.058762329E1,8.860075378E-1,-8.736582184E0,-2.103126526E0,9.029729719E0
1.059756229E1,6.912625122E-1,-8.858578491E0,-2.381846924E0,9.199209287E0
1.060750229E1,4.387376404E-1,-9.015452271E0,-2.417173462E0,9.344174544E0
1.061744229E1,1.431024170E-1,-9.227261810E0,-2.422262878E0,9.540974597E0
1.062738229E1,-1.202000427E-1,-9.537716217E0,-2.396366730E0,9.834889536E0
1.063732229E1,-3.391946411E-1,-9.906698914E0,-2.305805054E0,1.017715448E1
1.064726129E1,-6.026467896E-1,-1.023900787E1,-2.129471741E0,1.047545299E1
1.065720129E1,-8.421487427E-1,-1.054661819E1,-1.989961853E0,1.076570100E1
1.066714129E1,-1.147962799E0,-1.074046509E1,-1.920805664E0,1.097109399E1
1.067708129E1,-1.474134521E0,-1.082099762E1,-1.865420837E0,1.107911806E1
1.068702129E1,-1.696721649E0,-1.066996170E1,-1.839225311E0,1.095945696E1
1.069696029E1,-1.777104492E0,-1.026864624E1,-1.814077606E0,1.057799951E1
1.070690029E1,-1.810485077E0,-9.710906067E0,-1.769919434E0,1.003554521E1
1.071684029E1,-1.752106476E0,-9.258097687E0,-1.714235229E0,9.577100412E0
1.072678029E1,-1.524729309E0,-9.002129974E0,-1.604214020E0,9.270202056E0
1.073672029E1,-1.171314240E0,-8.914412384E0,-1.459614716E0,9.108743070E0
1.074665929E1,-6.390211487E-1,-8.939410400E0,-1.289418640E0,9.054502016E0
1.075659929E1,4.041595459E-3,-8.946146393E0,-1.132245483E0,9.017512487E0
1.076653929E1,5.551954651E-1,-8.885223083E0,-1.018931122E0,8.960672513E0
1.077647929E1,1.070124664E0,-8.792416077E0,-9.193881226E-1,8.904887522E0
1.078641929E1,1.388512573E0,-8.803642731E0,-8.108638000E-1,8.949278887E0
1.079635829E1,1.614392853E0,-8.953331451E0,-6.985972595E-1,9.124497054E0
1.080629829E1,1.881886597E0,-9.169631653E0,-6.358776855E-1,9.382322860E0
1.081623829E1,2.132615204E0,-9.445058899E0,-5.457650757E-1,9.698198015E0
1.082617829E1,2.384391632E0,-9.715845795E0,-2.971321106E-1,1.000855986E1
1.083611829E1,2.668800201E0,-9.930050354E0,6.586303711E-3,1.028243346E1
1.084605729E1,2.879262543E0,-1.000324814E1,2.555186462E-1,1.041251247E1
1.085599729E1,2.827619934E0,-9.969119110E0,2.591111755E-1,1.036561185E1
1.086593729E1,2.695295105E0,-9.907297668E0,-7.843688965E-2,1.026768305E1
1.087587729E1,2.398911438E0,-9.897118835E0,-7.331753540E-1,1.021005795E1
1.088581729E1,1.953288116E0,-9.937385101E0,-1.561403046E0,1.024719164E1
1.089575629E1,1.521136780E0,-9.890682220E0,-2.280956726E0,1.026363559E1
1.090569629E1,1.227896576E0,-9.691596222E0,-2.756667480E0,1.015056565E1
1.091563629E1,1.074615326E0,-9.438921661E0,-2.972219238E0,9.954000574E0
1.092557629E1,1.035995636E0,-9.099427643E0,-3.063828735E0,9.657117422E0
1.093551629E1,1.035696259E0,-8.813222809E0,-3.049458618E0,9.383216979E0
1.094545529E1,9.901908875E-1,-8.793613586E0,-2.939287720E0,9.324565952E0
1.095539529E1,9.409432983E-1,-8.921447754E0,-2.802771606E0,9.398570795E0
1.096533529E1,9.824070740E-1,-9.138795776E0,-2.612666931E0,9.555560705E0
1.097527529E1,1.036893768E0,-9.387428741E0,-2.388732605E0,9.741920269E0
1.098521529E1,1.050814819E0,-9.616751862E0,-2.117796021E0,9.903089828E0
1.099515429E1,1.088237000E0,-9.827214203E0,-1.864073639E0,1.006146954E1
1.100509429E1,1.117575989E0,-9.987530823E0,-1.583257599E0,1.017381210E1
1.101503429E1,1.060843964E0,-1.006282425E1,-1.320703583E0,1.020441472E1
1.102497429E1,1.028062134E0,-9.994416504E0,-1.055006104E0,1.010239134E1
1.103491429E1,9.632469177E-1,-9.834399261E0,-7.551795959E-1,9.910274955E0
1.104485329E1,7.806266785E-1,-9.741442566E0,-4.637356567E-1,9.783666595E0
1.105479329E1,6.718029785E-1,-9.670190735E0,-3.318598938E-1,9.699177237E0
1.106473329E1,5.643264771E-1,-9.717642059E0,-3.146456909E-1,9.739098186E0
1.107467329E1,3.234773254E-1,-9.880353699E0,-4.721182251E-1,9.896914793E0
1.108461329E1,5.119354248E-2,-1.011985565E1,-8.614585876E-1,1.015658457E1
1.109455229E1,-9.804611206E-2,-1.028780640E1,-1.388063507E0,1.038148803E1
1.110449229E1,-1.628613281E-1,-1.035052597E1,-1.924996948E0,1.052926991E1
1.111443229E1,-2.312690735E-1,-1.040815613E1,-2.334096222E0,1.066917075E1
1.112437229E1,-4.011657715E-1,-1.058658508E1,-2.590962067E0,1.090641106E1
1.113431229E1,-6.700067139E-1,-1.082518890E1,-2.807561646E0,1.120339351E1
1.114425129E1,-9.511221313E-1,-1.103101089E1,-3.069217529E0,1.148947044E1
1.115419129E1,-1.245859222E0,-1.118743561E1,-3.352428589E0,1.174519724E1
1.116413129E1,-1.586850128E0,-1.138472534E1,-3.563339996E0,1.203442796E1
1.117407129E1,-1.942360840E0,-1.176134216E1,-3.671415253E0,1.247322032E1
1.118401129E1,-2.221530304E0,-1.215951416E1,-3.651656342E0,1.288889350E1
1.119395029E1,-2.272274780E0,-1.236009705E1,-3.484154663E0,1.304126395E1
1.120389029E1,-2.239043884E0,-1.234707413E1,-3.186274109E0,1.294665593E1
1.121383029E1,-2.139800262E0,-1.221684494E1,-2.761008453E0,1.270642409E1
1.122377029E1,-1.962419128E0,-1.194994995E1,-2.238894196E0,1.231523609E1
1.123371029E1,-1.611548767E0,-1.161988632E1,-1.629062347E0,1.184367729E1
1.124364929E1,-1.222657471E0,-1.129027176E1,-9.680369568E-1,1.139746565E1
1.125358929E1,-9.502239990E-1,-1.103714813E1,-3.126997375E-1,1.108238899E1
1.126352929E1,-6.589297485E-1,-1.088701035E1,6.020480347E-1,1.092353626E1
1.127346929E1,-1.886077881E-1,-1.088701035E1,1.847757568E0,1.104430963E1
1.128340929E1,9.684860229E-2,-1.104912323E1,2.686912537E0,1.137154355E1
1.129334829E1,5.306465149E-1,-1.130868347E1,3.396886139E0,1.181976070E1
1.130328829E1,6.890171814E-1,-1.131182693E1,4.215982819E0,1.209159561E1
1.131322829E1,5.526507568E-1,-1.096604599E1,4.116739197E0,1.172634338E1
1.132316829E1,3.064128113E-1,-1.042342438E1,3.194506989E0,1.090626148E1
1.133310829E1,-2.095642090E-2,-9.915530548E0,1.963766327E0,1.010814342E1
1.134304729E1,-1.363664246E-1,-9.310937805E0,7.789801025E-1,9.344461922E0
1.135298729E1,2.195933533E-1,-8.626111908E0,-3.266207886E-1,8.635085931E0
1.136292729E1,3.240760803E-1,-8.270601196E0,-1.490001526E0,8.409992509E0
1.137286729E1,-1.332229614E-2,-8.509654083E0,-2.397713928E0,8.841007984E0
1.138280629E1,-5.688171387E-2,-9.479038239E0,-2.777623901E0,9.877782949E0
1.139274629E1,1.842668152E-1,-1.074211166E1,-3.180136871E0,1.120447178E1
1.140268629E1,4.766088867E-1,-1.187181244E1,-3.854334869E0,1.249091606E1
1.141262629E1,1.187630310E0,-1.273297165E1,-4.301904144E0,1.349242054E1
1.142256629E1,1.576072540E0,-1.306078995E1,-4.643793182E0,1.395109508E1
1.143250529E1,2.010618896E0,-1.317530182E1,-4.951553192E0,1.421791283E1
1.144244529E1,2.325713654E0,-1.302546341E1,-5.035229187E0,1.415715981E1
1.145238529E1,2.319576416E0,-1.258103760E1,-4.774022369E0,1.365482447E1
1.146232529E1,2.176473999E0,-1.183588715E1,-3.640279999E0,1.257286372E1
1.147226529E1,2.096390533E0,-1.116513199E1,-1.906585236E0,1.151911858E1
1.148220429E1,2.005080414E0,-1.093012070E1,-2.035766602E-2,1.111252898E1
1.149214429E1,2.007924500E0,-1.088880661E1,1.298849030E0,1.114831283E1
1.150208429E1,1.826950836E0,-1.078671890E1,1.531614990E0,1.104703121E1
1.151202408E1,1.633553009E0,-1.075139236E1,5.162763977E-1,1.088703240E1
1.152196408E1,1.335522766E0,-1.060903839E1,-7.241940308E-1,1.071726521E1
1.153190308E1,7.696994019E-1,-1.037776932E1,-1.122515717E0,1.046664104E1
1.154184308E1,6.092330933E-2,-1.009440857E1,-7.625143433E-1,1.012335044E1
1.155178308E1,-6.074368286E-1,-9.684261475E0,-4.743635559E-1,9.714881399E0
1.156172308E1,-1.047970734E0,-9.101223907E0,-4.339476013E-1,9.171631796E0
1.157166308E1,-1.189426575E0,-8.655450897E0,-5.233117676E-1,8.752452286E0
1.158160208E1,-9.988728333E-1,-8.343948669E0,-6.978488159E-1,8.432450374E0
1.159154208E1,-3.872447205E-1,-8.060587921E0,-9.220825195E-1,8.122393261E0
1.160148208E1,5.604345703E-1,-7.816595306E0,-9.939331055E-1,7.899439987E0
1.161142208E1,1.348246307E0,-7.527396698E0,-1.016386414E0,7.714435203E0
1.162136208E1,1.978435822E0,-7.115902405E0,-9.719288635E-1,7.449491328E0
1.163130108E1,2.527494049E0,-6.698420563E0,-7.876620483E-1,7.202602009E0
1.164124108E1,2.903661804E0,-6.304589539E0,-8.252339172E-1,6.990000868E0
1.165118108E1,3.297792206E0,-6.038143616E0,-1.043180695E0,6.958652004E0
1.166112108E1,3.566932526E0,-5.803431702E0,-1.115929413E0,6.902762173E0
1.167106108E1,3.638932800E0,-5.527705078E0,-9.087602234E-1,6.680059917E0
1.168100008E1,3.659889221E0,-5.297783203E0,-3.826043701E-1,6.450401699E0
1.169094008E1,3.657494202E0,-5.428910522E0,2.266287231E-1,6.549938463E0
1.170088008E1,3.434757385E0,-5.774092712E0,8.717871094E-1,6.774785437E0
1.171082008E1,2.945874023E0,-6.351591797E0,1.668131104E0,7.197468548E0
1.172076008E1,2.218835907E0,-7.159312134E0,2.872227173E0,8.026747283E0
1.173069908E1,1.234482880E0,-8.254584503E0,4.685706024E0,9.571726816E0
1.174063908E1,-2.386038208E-1,-9.731114044E0,6.819219360E0,1.188500168E1
1.175057908E1,-2.605781250E0,-1.160416901E1,7.690108337E0,1.416278929E1
1.176051908E1,-5.398374023E0,-1.371058868E1,6.045628052E0,1.592709335E1
1.177045908E1,-7.781418457E0,-1.553095322E1,3.867058411E0,1.779649184E1
1.178039808E1,-9.904303894E0,-1.653252045E1,2.539768524E0,1.943887579E1
1.179033808E1,-1.100197128E1,-1.618284760E1,1.666634216E0,1.963938894E1
1.180027808E1,-1.021969803E1,-1.417462372E1,1.329385529E0,1.752510916E1
1.181021808E1,-8.496032410E0,-1.134251312E1,1.119372253E0,1.421577169E1
1.182015808E1,-7.221582642E0,-9.195677490E0,8.586145020E-1,1.172386281E1
1.183009708E1,-6.008505249E0,-8.418643341E0,6.927593994E-1,1.036607962E1
1.184003708E1,-4.656067657E0,-7.907306671E0,4.891827393E-1,9.189328842E0
1.184997708E1,-3.279081116E0,-7.644602966E0,1.405577087E-1,8.319380022E0
1.185991708E1,-1.987566833E0,-7.676935730E0,-5.227130127E-1,7.947263240E0
1.186985708E1,-1.029409332E0,-8.017028503E0,-1.205143890E0,8.172196852E0
1.187979608E1,-1.060245209E0,-8.435408478E0,-1.488654327E0,8.631125523E0
1.188973608E1,-1.983824615E0,-8.805588684E0,-1.325194244E0,9.123052777E0
1.189967608E1,-3.029999084E0,-9.060059509E0,-1.323098602E0,9.644488720E0
1.190961608E1,-3.208428040E0,-9.351952515E0,-1.370549927E0,9.981554660E0
1.191955508E1,-2.430944824E0,-1.008617569E1,-1.043629761E0,1.042734846E1
1.192949508E1,-1.408570862E0,-1.149190247E1,-1.251098328E0,1.164530554E1
1.193943508E1,-7.499404907E-2,-1.321631653E1,-9.713301086E-1,1.325217450E1
1.194937508E1,1.242416382E0,-1.426039536E1,1.716480560E0,1.441696153E1
1.195931508E1,2.040257263E0,-1.356718689E1,5.679938507E0,1.484900371E1
1.196925408E1,2.428549805E0,-1.144340332E1,5.692212982E0,1.300963575E1
1.197919408E1,2.460134125E0,-9.793983307E0,2.217189331E0,1.033877640E1
1.198913408E1,2.615511017E0,-9.183253326E0,-9.078620911E-1,9.591519854E0
1.199907408E1,2.833308105E0,-9.116791534E0,-2.137255554E0,9.783219511E0
1.200901408E1,2.886297913E0,-9.296717377E0,-2.330803070E0,1.000961101E1
1.201895308E1,2.875071259E0,-9.632319489E0,-2.105072479E0,1.027029423E1
1.202889308E1,2.889291687E0,-9.829908600E0,-1.694176941E0,1.038486134E1
1.203883308E1,2.985990601E0,-9.860145721E0,-1.325493622E0,1.038727813E1
1.204877308E1,3.069367218E0,-9.933642883E0,-1.001866608E0,1.044519089E1
1.205871308E1,3.011886749E0,-9.997110901E0,-7.785310364E-1,1.046994741E1
1.206865208E1,2.773282928E0,-9.878108368E0,-5.786965942E-1,1.027633266E1
1.207859208E1,2.312990112E0,-9.622589722E0,-4.327500916E-1,9.906130872E0
1.208853208E1,1.740131378E0,-9.387129364E0,-4.150868225E-1,9.556074088E0
1.209847208E1,9.529183960E-1,-9.225465546E0,-6.942562866E-1,9.300497825E0
1.210841208E1,1.190025330E-1,-9.070986786E0,-1.169967041E0,9.146900336E0
1.211835108E1,-6.189628601E-1,-8.908275146E0,-1.612147522E0,9.074111568E0
1.212829108E1,-1.085991669E0,-8.798852692E0,-1.854194183E0,9.057440183E0
1.213823108E1,-1.280437317E0,-8.901688843E0,-1.778451691E0,9.167468265E0
1.214817108E1,-1.423390045E0,-9.277257843E0,-1.510359192E0,9.506562849E0
1.215811108E1,-1.713636475E0,-9.832752686E0,-1.312770081E0,1.006692310E1
1.216805008E1,-2.015408936E0,-1.048135391E1,-1.238374786E0,1.074496278E1
1.217799008E1,-2.271975403E0,-1.097442856E1,-1.310524750E0,1.128350254E1
1.218793008E1,-2.529140625E0,-1.119432129E1,-1.397942963E0,1.156129863E1
1.219787008E1,-2.649041290E0,-1.106244553E1,-1.367556152E0,1.145710830E1
1.220781008E1,-2.380050659E0,-1.034573593E1,-1.281485138E0,1.069303966E1
1.221774908E1,-1.862876129E0,-9.553283844E0,-1.087189178E0,9.793749026E0
1.222768908E1,-1.298100586E0,-8.981472931E0,-9.213340759E-1,9.121446027E0
1.223762908E1,-6.384223938E-1,-8.592581635E0,-9.410929871E-1,8.667508195E0
1.224756908E1,6.152206421E-2,-8.368647308E0,-1.116079102E0,8.442966025E0
1.225750908E1,5.382806396E-1,-8.271798706E0,-1.370998993E0,8.401906814E0
1.226744808E1,7.728428650E-1,-8.383466492E0,-1.426683197E0,8.539041015E0
1.227738808E1,9.720785522E-1,-8.560398560E0,-1.443598022E0,8.735521476E0
1.228732808E1,1.169517975E0,-8.773405609E0,-1.322050781E0,8.949203123E0
1.229726808E1,1.403032379E0,-8.983718262E0,-1.104403381E0,9.159443241E0
1.230720808E1,1.519041138E0,-9.237740021E0,-8.424481201E-1,9.399630073E0
1.231714708E1,1.472338257E0,-9.510622559E0,-5.664221191E-1,9.640568210E0
1.232708708E1,1.440005493E0,-9.807455292E0,-4.125421143E-1,9.921188745E0
1.233702708E1,1.450184326E0,-1.010758118E1,-3.158432007E-1,1.021596734E1
1.234696708E1,1.339564362E0,-1.031789383E1,-1.263372803E-1,1.040525477E1
1.235690708E1,1.044527893E0,-1.025921585E1,1.037342834E-1,1.031277408E1
1.236684608E1,5.671705627E-1,-1.017568954E1,2.468367004E-1,1.019447245E1
1.237678608E1,1.284329224E-1,-1.007150620E1,2.127076721E-1,1.007457079E1
1.238672608E1,-1.282832336E-1,-9.982591095E0,1.496887207E-4,9.983415326E0
1.239666608E1,-2.559677124E-1,-9.837093658E0,-3.680845642E-1,9.847305081E0
1.240660608E1,-1.499880981E-1,-9.620045013E0,-7.475454712E-1,9.650211745E0
1.241654508E1,3.068618774E-2,-9.560019836E0,-9.828561401E-1,9.610459256E0
1.242648508E1,1.919009399E-1,-9.712552643E0,-1.178948364E0,9.785725525E0
1.243642508E1,2.953358459E-1,-9.920919342E0,-1.366807709E0,1.001898334E1
1.244636508E1,3.088078308E-1,-1.006970993E1,-1.488804016E0,1.018385771E1
1.245630508E1,2.884501648E-1,-1.006372238E1,-1.516646118E0,1.018145015E1
1.246624408E1,2.430944824E-1,-9.927954712E0,-1.444795532E0,1.003547776E1
1.247618408E1,1.609153748E-1,-9.776170349E0,-1.321901093E0,9.866449359E0
1.248612408E1,5.059478760E-2,-9.716444550E0,-1.245709534E0,9.796103652E0
1.249606408E1,-4.430786133E-2,-9.666598206E0,-1.233135681E0,9.745035026E0
1.250600408E1,-1.131646729E-1,-9.589658203E0,-1.303339691E0,9.678483613E0
1.251594333E1,-1.517843628E-1,-9.575886841E0,-1.403331757E0,9.679358827E0
1.252588333E1,-6.122268677E-2,-9.558822327E0,-1.535656586E0,9.681584253E0
1.253582333E1,5.209167480E-2,-9.537566528E0,-1.667232971E0,9.682332085E0
1.254576333E1,1.219963074E-1,-9.546547852E0,-1.679806824E0,9.693978025E0
1.255570233E1,1.751358032E-1,-9.425749054E0,-1.645677795E0,9.569935903E0
1.256564233E1,2.918930054E-1,-9.207203522E0,-1.630559235E0,9.355026544E0
1.257558233E1,5.191204834E-1,-9.015901337E0,-1.619482269E0,9.174894321E0
1.258552233E1,6.454577637E-1,-8.956774292E0,-1.568737793E0,9.115994718E0
1.259546233E1,6.424639893E-1,-9.036708069E0,-1.507215729E0,9.184037889E0
1.260540133E1,4.581971741E-1,-9.315278778E0,-1.727407837E0,9.485162160E0
1.261534133E1,2.983296204E-1,-9.767189026E0,-2.047741699E0,9.983998603E0
1.262528133E1,7.259902954E-2,-1.053434372E1,-2.102228394E0,1.074230108E1
1.263522133E1,-2.920426941E-1,-1.144325363E1,-2.216141510E0,1.165952940E1
1.264516133E1,-6.968009949E-1,-1.232536926E1,-2.539768524E0,1.260359803E1
1.265510033E1,-9.639953613E-1,-1.294343399E1,-2.905757446E0,1.330057130E1
1.266504033E1,-1.137035522E0,-1.320404205E1,-3.131038971E0,1.361774509E1
1.267498033E1,-1.340911560E0,-1.316946396E1,-2.970872040E0,1.356683108E1
1.268492033E1,-1.529519348E0,-1.291963348E1,-2.588716736E0,1.326490909E1
1.269486033E1,-1.823957062E0,-1.266950363E1,-2.083517303E0,1.296858458E1
1.270479933E1,-2.185305634E0,-1.258433075E1,-1.461560669E0,1.285601418E1
1.271473933E1,-2.514471130E0,-1.256546997E1,-7.924520874E-1,1.283906465E1
1.272467933E1,-2.680326233E0,-1.241563156E1,1.377136230E-2,1.270166310E1
1.273461933E1,-2.512824554E0,-1.205338486E1,1.119971008E0,1.236336155E1
1.274455933E1,-2.021396484E0,-1.170056854E1,2.120340729E0,1.206172429E1
1.275449833E1,-1.418450317E0,-1.149789001E1,3.024610291E0,1.197337645E1
1.276443833E1,-7.243437195E-1,-1.132769394E1,3.824696503E0,1.197788075E1
1.277437833E1,1.451980591E-1,-1.122860001E1,3.932771759E0,1.189828703E1
1.278431833E1,7.349716187E-1,-1.095751373E1,3.581003265E0,1.155122828E1
1.279425833E1,1.146316223E0,-1.024559418E1,2.710413666E0,1.065985850E1
1.280419733E1,1.793420563E0,-9.262887726E0,1.614093475E0,9.571977021E0
1.281413733E1,2.144440613E0,-8.586743774E0,3.261717224E-1,8.856476849E0
1.282407733E1,2.058968353E0,-8.347092133E0,-8.026309204E-1,8.634669313E0
1.283401733E1,1.719474335E0,-8.710536346E0,-1.474284210E0,9.000197185E0
1.284395733E1,1.431024170E0,-9.476792908E0,-1.928140411E0,9.776254878E0
1.285389633E1,1.422342224E0,-1.042327469E1,-2.325264587E0,1.077379079E1
1.286383633E1,1.695973206E0,-1.134610565E1,-2.933150482E0,1.184119125E1
1.287377633E1,1.909129944E0,-1.199320999E1,-4.108805695E0,1.282045815E1
1.288371633E1,2.144440613E0,-1.229797623E1,-5.167254639E0,1.351071298E1
1.289365633E1,2.395169220E0,-1.229692841E1,-5.642216949E0,1.373993799E1
1.290359533E1,2.280357971E0,-1.187315964E1,-5.206622772E0,1.316361930E1
1.291353533E1,1.897753601E0,-1.132395172E1,-4.309987335E0,1.226414865E1
1.292347533E1,1.401535492E0,-1.074974579E1,-3.115471344E0,1.127951674E1
1.293341533E1,7.384144592E-1,-1.033331177E1,-1.598675537E0,1.048228751E1
1.294335533E1,2.055226135E-1,-1.011865814E1,-4.730163574E-1,1.013179286E1
1.295329433E1,-3.296145630E-1,-1.006821304E1,2.829116821E-2,1.007364681E1
1.296323433E1,-6.944059753E-1,-9.983339539E0,-2.363584900E-1,1.001025141E1
1.297317433E1,-7.866142273E-1,-9.821526031E0,-9.851014709E-1,9.902098790E0
1.298311433E1,-6.867718506E-1,-9.726922760E0,-1.675166473E0,9.893981234E0
1.299305433E1,-6.195616150E-1,-9.758956146E0,-1.562750244E0,9.902690038E0
1.300299333E1,-7.101232910E-1,-9.660011902E0,-9.401948547E-1,9.731601687E0
1.301293333E1,-7.812254333E-1,-9.494905243E0,-7.165599060E-1,9.553899562E0
1.302287333E1,-7.481442261E-1,-9.348809052E0,-7.929011536E-1,9.412153989E0
1.303281333E1,-5.412744141E-1,-9.146878967E0,-1.336271210E0,9.259805267E0
1.304275233E1,-2.924917603E-1,-8.912316742E0,-1.748064880E0,9.086840593E0
1.305269233E1,-1.137634277E-2,-8.619824982E0,-1.673519897E0,8.780784759E0
1.306263233E1,4.703219604E-1,-8.364905090E0,-1.351240082E0,8.486382602E0
1.307257233E1,1.044677582E0,-8.203690338E0,-1.080004120E0,8.340161588E0
1.308251233E1,1.664837952E0,-8.083639984E0,-1.050216064E0,8.319848231E0
1.309245133E1,2.244582367E0,-7.937693481E0,-1.002465363E0,8.309636852E0
1.310239133E1,2.789149933E0,-7.791597290E0,-8.957373047E-1,8.324103015E0
1.311233133E1,3.268752594E0,-7.655979309E0,-7.786807251E-1,8.360927363E0
1.312227133E1,3.616778870E0,-7.578739929E0,-5.876779175E-1,8.418061157E0
1.313221133E1,3.768263855E0,-7.550897827E0,-3.332070923E-1,8.445525291E0
1.314215033E1,3.710334320E0,-7.559879150E0,4.026626587E-2,8.421399819E0
1.315209033E1,3.472478943E0,-7.669750671E0,3.926335144E-1,8.428365586E0
1.316203033E1,3.072360992E0,-7.814499664E0,6.718029785E-1,8.423605304E0
1.317197033E1,2.645448761E0,-8.014184418E0,9.913883972E-1,8.497552705E0
1.318191033E1,2.166594543E0,-8.190667419E0,1.435664520E0,8.593154095E0
1.319184933E1,1.573976898E0,-8.462951202E0,2.269281006E0,8.902167299E0
1.320178933E1,7.716453552E-1,-8.963959351E0,3.532953186E0,9.665907200E0
1.321172933E1,-3.483256531E-1,-9.633217621E0,4.580325165E0,1.067237514E1
1.322166933E1,-1.629810791E0,-1.027104126E1,4.747677155E0,1.143201689E1
1.323160933E1,-2.768043823E0,-1.064795746E1,4.076323242E0,1.173275227E1
1.324154833E1,-3.379821625E0,-1.077339661E1,3.246448975E0,1.174856160E1
1.325148833E1,-3.564238129E0,-1.068058960E1,2.288441162E0,1.148981073E1
1.326142833E1,-3.754492493E0,-1.058478882E1,1.485810242E0,1.132879518E1
1.327136833E1,-3.832480316E0,-1.047701294E1,6.659651184E-1,1.117583174E1
1.328130833E1,-3.895050201E0,-1.009815079E1,-6.810836792E-2,1.082352550E1
1.329124733E1,-3.988306274E0,-9.796827393E0,-4.182302856E-1,1.058580797E1
1.330118733E1,-4.285438385E0,-9.801168365E0,-8.946894836E-1,1.073444702E1
1.331112733E1,-4.863685913E0,-9.928104401E0,-1.382075958E0,1.114149144E1
1.332106733E1,-5.510191498E0,-1.000654129E1,-1.972298584E0,1.159236993E1
1.333100733E1,-6.065836029E0,-1.005414230E1,-2.608775024E0,1.202854319E1
1.334094633E1,-6.331982574E0,-1.017509079E1,-2.492466888E0,1.224086872E1
1.335088633E1,-6.482868805E0,-1.019754410E1,-1.526675262E0,1.217982885E1
1.336082633E1,-6.490203552E0,-1.006506958E1,-1.010398865E-1,1.197658452E1
1.337076633E1,-6.204896851E0,-9.879305878E0,1.298250275E0,1.173826577E1
1.338070633E1,-5.402116241E0,-9.777367859E0,2.286944275E0,1.140218822E1
1.339064533E1,-4.498445435E0,-9.697733459E0,2.597398682E0,1.100129654E1
1.340058533E1,-3.732338562E0,-9.657916260E0,2.128274231E0,1.057048953E1
1.341052533E1,-2.982547760E0,-9.612111511E0,1.548529816E0,1.018264324E1
1.342046533E1,-2.140997772E0,-9.609866180E0,1.023870850E0,9.898571159E0
1.343040533E1,-1.097517700E0,-9.917925568E0,4.221221924E-1,9.987391041E0
1.344034433E1,4.834945679E-2,-1.050485504E1,-1.746867371E-1,1.050641864E1
1.345028433E1,1.010698242E0,-1.103250778E1,-7.497908020E-1,1.110404994E1
1.346022433E1,1.581012268E0,-1.140223892E1,-1.252744904E0,1.157929281E1
1.347016433E1,1.739682312E0,-1.156405243E1,-1.485810242E0,1.178819050E1
1.348010333E1,1.599274292E0,-1.158096725E1,-1.163380737E0,1.174861420E1
1.349004333E1,9.912387085E-1,-1.159488831E1,2.963836670E-2,1.163721906E1
1.349998333E1,-1.197509766E-1,-1.173843979E1,2.057770844E0,1.191804220E1
1.350992404E1,-1.574126587E0,-1.201760925E1,4.199367371E0,1.282713892E1
1.351986404E1,-2.785856781E0,-1.254900421E1,4.224964142E0,1.353103199E1
1.352980304E1,-3.066223755E0,-1.250544479E1,2.184108124E0,1.305979349E1
1.353974304E1,-2.318079529E0,-1.144011017E1,2.080673218E-2,1.167261951E1
1.354968304E1,-5.222639465E-1,-9.995763702E0,-1.923649750E0,1.019256984E1
1.355962304E1,1.236428833E0,-8.833730164E0,-3.236569519E0,9.488884398E0
1.356956304E1,2.381846924E0,-7.896229706E0,-3.144211578E0,8.826647426E0
1.357950204E1,3.173849945E0,-7.226971436E0,-1.676663361E0,8.069302301E0
1.358944204E1,3.460354156E0,-7.021897888E0,-2.001338196E-1,7.830782489E0
1.359938204E1,3.260070648E0,-7.170987854E0,1.076261902E-1,7.877989009E0
1.360932204E1,2.702629852E0,-7.771389313E0,-4.296066284E-1,8.239129919E0
1.361926204E1,2.157164154E0,-8.459658051E0,-9.083111572E-1,8.777482593E0
1.362920104E1,1.740430756E0,-8.984766083E0,-1.218915253E0,9.232598506E0
1.363914104E1,1.390308838E0,-9.380543060E0,-1.649420013E0,9.625390026E0
1.364908104E1,1.098266144E0,-9.484127655E0,-2.142794037E0,9.785010587E0
1.365902104E1,8.619076538E-1,-9.392069092E0,-2.556683350E0,9.771922860E0
1.366896104E1,6.574328613E-1,-9.445657654E0,-2.645299072E0,9.831087105E0
1.367890004E1,3.023712158E-1,-9.765692139E0,-2.388732605E0,1.005814171E1
1.368884004E1,-1.914518738E-1,-1.017089951E1,-1.954785004E0,1.035881436E1
1.369878004E1,-5.611830139E-1,-1.060335022E1,-1.603016510E0,1.073851127E1
1.370872004E1,-7.487429810E-1,-1.091604996E1,-1.459614716E0,1.103862482E1
1.371866004E1,-7.469467163E-1,-1.096065720E1,-1.490600281E0,1.108674094E1
1.372859904E1,-6.277944946E-1,-1.076246933E1,-1.441053314E0,1.087664961E1
1.373853904E1,-4.716691589E-1,-1.034483780E1,-1.213376770E0,1.042642911E1
1.374847904E1,-4.089495850E-1,-9.865983582E0,-1.000220032E0,9.924984227E0
1.375841904E1,-3.680845642E-1,-9.438771973E0,-9.298663330E-1,9.491604395E0
1.376835904E1,-2.944377136E-1,-9.309440918E0,-9.961784363E-1,9.367217049E0
1.377829804E1,-2.859054565E-2,-9.391620026E0,-1.084045715E0,9.454020269E0
1.378823804E1,2.442919922E-1,-9.530082092E0,-1.118324432E0,9.598582854E0
1.379817804E1,5.072950745E-1,-9.698930969E0,-1.067729645E0,9.770704009E0
1.380811804E1,8.002359009E-1,-9.712103577E0,-9.617500305E-1,9.792359088E0
1.381805804E1,1.097966766E0,-9.468410339E0,-7.542814636E-1,9.561656023E0
1.382799704E1,1.366059265E0,-9.156159668E0,-5.222639465E-1,9.272223973E0
1.383793704E1,1.507515106E0,-8.895551605E0,-3.811074829E-1,9.030430946E0
1.384787704E1,1.615440674E0,-8.724906464E0,-4.194277954E-1,8.883105372E0
1.385781704E1,1.630858612E0,-8.640631714E0,-5.245092773E-1,8.808820932E0
1.386775704E1,1.612596588E0,-8.829239502E0,-5.379812622E-1,8.991404883E0
1.387769604E1,1.570683746E0,-9.249266052E0,-4.896318054E-1,9.394450981E0
1.388763604E1,1.316961365E0,-9.718989258E0,-4.587959290E-1,9.818535183E0
1.389757604E1,6.017486572E-1,-1.008078690E1,-3.267704773E-1,1.010401627E1
1.390751604E1,-7.978408813E-2,-1.038660095E1,-2.369572449E-1,1.038960989E1
1.391745604E1,-5.005590820E-1,-1.054018158E1,-1.957928467E-1,1.055387711E1
1.392739504E1,-9.015751648E-1,-1.057505905E1,-1.477427673E-1,1.061444957E1
1.393733504E1,-1.208437042E0,-1.043959076E1,-1.363664246E-1,1.051018416E1
1.394727504E1,-1.307231598E0,-1.015054184E1,-1.796264648E-1,1.023594743E1
1.395721504E1,-1.283431091E0,-9.908495178E0,-2.279759216E-1,9.993870376E0
1.396715504E1,-1.311722260E0,-9.788744202E0,-2.974314880E-1,9.880718285E0
1.397709404E1,-1.297501831E0,-9.803114319E0,-3.504212952E-1,9.894814624E0
1.398703404E1,-1.127754822E0,-9.875413971E0,-4.218228149E-1,9.948545950E0
1.399697404E1,-8.384065247E-1,-9.829010468E0,-5.548960876E-1,9.880297665E0
1.400691404E1,-3.975732422E-1,-9.576784973E0,-6.417155457E-1,9.606491230E0
1.401685404E1,4.595443726E-2,-9.267079010E0,-7.015910339E-1,9.293712669E0
1.402679304E1,3.347039795E-1,-9.041348419E0,-8.348139954E-1,9.085973938E0
1.403673304E1,4.562512207E-1,-9.032816162E0,-9.458830261E-1,9.093658653E0
1.404667304E1,4.393363953E-1,-9.286239166E0,-1.034349060E0,9.353990181E0
1.405661304E1,2.586621094E-1,-9.768087158E0,-1.079255676E0,9.830932084E0
1.406655304E1,6.945556641E-2,-1.003977219E1,-1.067729645E0,1.009662796E1
1.407649204E1,-1.451980591E-1,-1.005099884E1,-9.639953613E-1,1.009816554E1
1.408643204E1,-5.179229736E-1,-9.929301910E0,-8.487350464E-1,9.978959455E0
1.409637204E1,-1.022972717E0,-9.834998016E0,-8.310717773E-1,9.922919906E0
1.410631204E1,-1.486259308E0,-9.840686188E0,-9.797126770E-1,1.000039541E1
1.411625204E1,-1.870659943E0,-9.903405762E0,-1.189875641E0,1.014852789E1
1.412619104E1,-2.204465790E0,-1.003318588E1,-1.340761871E0,1.035963951E1
1.413613104E1,-2.390528870E0,-1.004246658E1,-1.611997833E0,1.044817211E1
1.414607104E1,-2.377356262E0,-9.874665527E0,-1.809886322E0,1.031680816E1
1.415601104E1,-2.268831940E0,-9.651629333E0,-1.851499786E0,1.008610919E1
1.416595104E1,-2.136507111E0,-9.489516449E0,-1.853146362E0,9.902006691E0
1.417589004E1,-1.889371033E0,-9.395960999E0,-1.875300293E0,9.765785026E0
1.418583004E1,-1.556163940E0,-9.244925079E0,-1.920206909E0,9.569612349E0
1.419577004E1,-1.194815369E0,-9.064550171E0,-1.977537689E0,9.354373783E0
1.420571004E1,-8.707392883E-1,-8.948691101E0,-2.080373840E0,9.228500130E0
1.421565004E1,-6.962022400E-1,-9.135802002E0,-2.200723572E0,9.422884909E0
1.422558904E1,-8.669970703E-1,-9.788594513E0,-2.342029724E0,1.010214679E1
1.423552904E1,-1.295555878E0,-1.076621155E1,-2.581531677E0,1.114693150E1
1.424546904E1,-1.688638458E0,-1.198512680E1,-2.784509583E0,1.241967221E1
1.425540904E1,-1.673220520E0,-1.295540909E1,-2.654280396E0,1.332994734E1
1.426534904E1,-1.176852722E0,-1.331960175E1,-2.149979095E0,1.354323385E1
1.427528804E1,-4.927752686E-1,-1.328711929E1,-1.518741760E0,1.338271060E1
1.428522804E1,1.025367737E-1,-1.293100983E1,-7.455995178E-1,1.295289341E1
1.429516804E1,3.743714905E-1,-1.256247620E1,3.607498169E-2,1.256810501E1
1.430510804E1,4.849914551E-2,-1.245544876E1,5.249583435E-1,1.246660087E1
1.431504704E1,-5.239105225E-1,-1.256981094E1,6.852749634E-1,1.259937424E1
1.432498704E1,-1.147513733E0,-1.280078064E1,1.177152100E0,1.290590794E1
1.433492704E1,-1.986668701E0,-1.289792862E1,3.008294220E0,1.339228320E1
1.434486704E1,-2.883154449E0,-1.263732056E1,5.015320587E0,1.389848521E1
1.435480704E1,-3.266357574E0,-1.208182571E1,5.596561890E0,1.370989093E1
1.436474704E1,-3.139271851E0,-1.150552414E1,4.632566528E0,1.279424817E1
1.437468604E1,-2.702031097E0,-1.101364700E1,3.289858704E0,1.180781786E1
1.438462604E1,-1.886526947E0,-1.066681824E1,2.111359406E0,1.103620559E1
1.439456604E1,-8.250842285E-1,-1.048135391E1,1.330583038E0,1.059764101E1
1.440450604E1,3.849993896E-1,-1.052760773E1,7.060816956E-1,1.055828113E1
1.441444504E1,1.349593506E0,-1.084090622E1,-8.442443848E-2,1.092491546E1
1.442438504E1,2.170636139E0,-1.134101624E1,-1.030307465E0,1.159274963E1
1.443432504E1,3.082090759E0,-1.170984924E1,-1.882784729E0,1.225417199E1
1.444426504E1,3.841910706E0,-1.158066788E1,-2.339634705E0,1.242360805E1
1.445420504E1,4.641248474E0,-1.127515320E1,-2.516417084E0,1.245000490E1
1.446414504E1,5.296885071E0,-1.105810455E1,-2.508333893E0,1.251520702E1
1.447408404E1,5.490881653E0,-1.085362976E1,-1.823358307E0,1.229941852E1
1.448402404E1,5.102439423E0,-1.054601944E1,-2.868035889E-1,1.171903027E1
1.449396404E1,4.126768341E0,-1.023526566E1,1.314416656E0,1.111389091E1
1.450390404E1,2.811453552E0,-1.020682480E1,2.090402985E0,1.079135433E1
1.451384242E1,1.510059814E0,-1.029154861E1,1.456321564E0,1.050319599E1
1.452378142E1,7.191046143E-1,-1.018796402E1,-8.442443848E-2,1.021365996E1
1.453372142E1,2.574645996E-2,-9.868378601E0,-1.049018555E0,9.924011237E0
1.454366142E1,-7.135661316E-1,-9.513766022E0,-1.268911285E0,9.624502917E0
1.455360142E1,-1.510359192E0,-9.127718811E0,-1.259331207E0,9.337148958E0
1.456354042E1,-2.137255554E0,-8.762178955E0,-1.130000153E0,9.089584242E0
1.457348042E1,-2.592009888E0,-8.492290192E0,-5.902226257E-1,8.898644318E0
1.458342042E1,-2.618205414E0,-8.263416138E0,-1.372645569E-1,8.669364879E0
1.459336042E1,-2.198478241E0,-7.997269592E0,-1.076261902E-1,8.294649535E0
1.460330042E1,-1.417701874E0,-7.837102661E0,-3.526666260E-1,7.972103265E0
1.461324042E1,-5.173242188E-1,-7.767048340E0,-4.019142151E-1,7.794626309E0
1.462317942E1,2.535726929E-1,-7.707322540E0,-2.204914856E-1,7.714644279E0
1.463311942E1,7.818241882E-1,-7.579488373E0,3.921844482E-2,7.619805191E0
1.464305942E1,1.084794159E0,-7.378306732E0,2.044747925E-1,7.460428844E0
1.465299942E1,1.233584747E0,-7.148534546E0,1.510359192E-1,7.255762491E0
1.466293842E1,1.429676971E0,-6.918462982E0,-8.487350464E-2,7.065147542E0
1.467287842E1,1.761985931E0,-6.681805115E0,-5.526507568E-1,6.932282227E0
1.468281842E1,2.151625671E0,-6.462960205E0,-1.022972717E0,6.888092684E0
1.469275842E1,2.439028015E0,-6.232289886E0,-1.350641327E0,6.827483203E0
1.470269842E1,2.611020355E0,-5.957162018E0,-1.521436157E0,6.679818454E0
1.471263842E1,2.638862457E0,-5.701194305E0,-1.469793549E0,6.451938054E0
1.472257742E1,2.567610626E0,-5.544919281E0,-1.257684631E0,6.238631644E0
1.473251742E1,2.484383698E0,-5.624104614E0,-1.005608826E0,6.230085407E0
1.474245742E1,2.469414825E0,-5.814059601E0,-7.229965210E-1,6.357988879E0
1.475239742E1,2.462678833E0,-6.064788208E0,-4.189787292E-1,6.559114743E0
1.476233742E1,2.300116882E0,-6.570287018E0,-7.379653931E-2,6.961656060E0
1.477227642E1,1.836680603E0,-7.322622528E0,4.671784973E-1,7.563891331E0
1.478221642E1,9.380992126E-1,-8.278085632E0,1.650018768E0,8.492896667E0
1.479215642E1,-2.890489197E-1,-9.546098785E0,3.864962769E0,1.030288739E1
1.480209642E1,-1.948198700E0,-1.109058701E1,5.639073486E0,1.259348038E1
1.481203642E1,-4.085154877E0,-1.288101379E1,5.686824188E0,1.466113829E1
1.482197542E1,-6.396648102E0,-1.457025101E1,4.894671478E0,1.664833716E1
1.483191542E1,-8.593330078E0,-1.604678055E1,3.816613312E0,1.859868342E1
1.484185542E1,-1.137349869E1,-1.692829742E1,2.258054352E0,2.051883368E1
1.485179542E1,-1.355461304E1,-1.685001022E1,1.380878448E0,2.166926866E1
1.486173442E1,-1.433958069E1,-1.541225006E1,1.956880646E0,2.114214767E1
1.487167442E1,-1.322589661E1,-1.340477463E1,3.076252899E0,1.908076665E1
1.488161442E1,-1.099688187E1,-1.235830078E1,3.482657776E0,1.690526291E1
1.489155442E1,-8.252189484E0,-1.213646210E1,3.049757996E0,1.498977543E1
1.490149442E1,-5.626050568E0,-1.135314102E1,2.279609528E0,1.287411650E1
1.491143342E1,-3.379522247E0,-1.024005569E1,1.243314514E0,1.085475666E1
1.492137342E1,-1.803449707E0,-9.214987335E0,2.133064270E-1,9.392226683E0
1.493131342E1,-1.054557037E0,-8.455167389E0,-8.640032959E-1,8.564370836E0
1.494125342E1,-8.801696777E-1,-8.199499054E0,-1.740730133E0,8.428322775E0
1.495119342E1,-8.201445007E-1,-8.790919189E0,-2.322270813E0,9.129394226E0
1.496113242E1,-5.637277222E-1,-9.905351715E0,-2.846929779E0,1.032176297E1
1.497107242E1,-2.679428101E-1,-1.075079361E1,-3.017425232E0,1.116943202E1
1.498101242E1,2.514770508E-1,-1.126512405E1,-2.901865540E0,1.163559557E1
1.499095242E1,9.765692139E-1,-1.164503403E1,-2.402953033E0,1.193041023E1
1.500089242E1,1.756746826E0,-1.197584610E1,-1.612596588E0,1.221095889E1
1.501083142E1,2.443967743E0,-1.214978439E1,5.388793945E-2,1.239327007E1
1.502077142E1,2.524949341E0,-1.211625412E1,3.054398346E0,1.274787560E1
1.503071142E1,2.008972321E0,-1.169562881E1,5.488336945E0,1.307461455E1
1.504065142E1,1.698218536E0,-1.106124802E1,5.110372925E0,1.230248208E1
1.505059142E1,2.026336212E0,-1.041953247E1,2.693947906E0,1.095125795E1
1.506053042E1,2.518213348E0,-9.774823151E0,3.833528137E-1,1.010126356E1
1.507047042E1,2.625839539E0,-9.174421692E0,-7.216493225E-1,9.570048297E0
1.508041042E1,2.506238251E0,-8.529412994E0,-1.274749146E0,8.980929884E0
1.509035042E1,2.336790619E0,-7.939789124E0,-1.730700989E0,8.455540647E0
1.510029042E1,2.437980194E0,-7.527696075E0,-1.855541382E0,8.127299026E0
1.511022942E1,2.639610901E0,-7.335495758E0,-1.743873596E0,7.988625592E0
1.512016942E1,2.423610077E0,-7.335645447E0,-1.651964722E0,7.900289069E0
1.513010942E1,1.954186249E0,-7.654781799E0,-1.598675537E0,8.060415111E0
1.514004942E1,1.785487061E0,-8.224946136E0,-1.707948303E0,8.588060922E0
1.514998942E1,1.894759827E0,-8.758885803E0,-1.971550140E0,9.175794531E0
1.515992942E1,2.269131317E0,-9.220675507E0,-2.387834473E0,9.791402719E0
1.516986842E1,2.322869568E0,-9.901759186E0,-3.098257141E0,1.063201558E1
1.517980842E1,2.137405243E0,-1.052536240E1,-3.813619537E0,1.139716845E1
1.518974842E1,1.836830292E0,-1.083177521E1,-4.139641571E0,1.174044003E1
1.519968842E1,1.363065491E0,-1.087099365E1,-3.958817596E0,1.164940716E1
1.520962842E1,1.030008087E0,-1.060035645E1,-3.571722565E0,1.123323976E1
1.521956742E1,8.931925964E-1,-1.018990997E1,-3.082839203E0,1.068344307E1
1.522950742E1,8.024812317E-1,-9.817634125E0,-2.607427826E0,1.018963178E1
1.523944742E1,6.328839111E-1,-9.557924194E0,-2.370769958E0,9.867877540E0
1.524938742E1,6.212081909E-2,-9.501341858E0,-2.256258087E0,9.765759400E0
1.525932742E1,-3.462300110E-1,-9.584568787E0,-1.815873871E0,9.761210579E0
1.526926642E1,-4.363426208E-1,-9.656868439E0,-1.333277435E0,9.758234043E0
1.527920642E1,-3.722758484E-1,-9.582024078E0,-1.113085327E0,9.653638365E0
1.528914642E1,-3.106040955E-1,-9.413025513E0,-1.106349335E0,9.482907416E0
1.529908642E1,-1.434017944E-1,-9.195228424E0,-1.162781982E0,9.269565890E0
1.530902642E1,1.535806274E-1,-8.957971802E0,-1.002165985E0,9.015164029E0
1.531896542E1,5.225633240E-1,-8.793463898E0,-7.515870667E-1,8.840982008E0
1.532890542E1,8.047265625E-1,-8.605155487E0,-5.550457764E-1,8.660505852E0
1.533884542E1,9.300160217E-1,-8.500373383E0,-4.173321533E-1,8.561275814E0
1.534878542E1,9.210346985E-1,-8.610993347E0,-3.460803223E-1,8.667022726E0
1.535872542E1,8.857081604E-1,-8.923094330E0,-2.990780640E-1,8.971930620E0
1.536866442E1,7.220983887E-1,-9.376202087E0,-3.905378723E-1,9.412072646E0
1.537860442E1,4.701722717E-1,-9.821376343E0,-4.802014160E-1,9.844342976E0
1.538854442E1,2.152523804E-1,-1.012210098E1,-5.281018066E-1,1.013815335E1
1.539848442E1,-6.017486572E-2,-1.030711624E1,-5.553451538E-1,1.032224174E1
1.540842442E1,-3.077600098E-1,-1.047342041E1,-4.945715332E-1,1.048960687E1
1.541836342E1,-4.888833618E-1,-1.058583664E1,-4.312532043E-1,1.060589099E1
1.542830342E1,-6.129753113E-1,-1.065065186E1,-4.758604431E-1,1.067888416E1
1.543824342E1,-7.207511902E-1,-1.052356613E1,-5.843847656E-1,1.056439454E1
1.544818342E1,-8.842112732E-1,-1.020532791E1,-6.568341064E-1,1.026459831E1
1.545812342E1,-9.056167603E-1,-9.931547241E0,-7.261399841E-1,9.999152544E0
1.546806242E1,-8.632548523E-1,-9.797276459E0,-7.324269104E-1,9.862468460E0
1.547800242E1,-7.559280396E-1,-9.817783813E0,-7.012916565E-1,9.871783841E0
1.548794242E1,-5.128335571E-1,-9.854906616E0,-7.065307617E-1,9.893501321E0
1.549788242E1,-2.757266235E-1,-9.763446808E0,-6.632707214E-1,9.789833849E0
1.550782242E1,7.694000244E-2,-9.689500580E0,-6.158193970E-1,9.709355014E0
1.551776242E1,3.823049927E-1,-9.674831085E0,-5.454656982E-1,9.697734089E0
1.552770242E1,4.920268250E-1,-9.826615448E0,-4.655319214E-1,9.849933072E0
1.553764242E1,4.987628174E-1,-9.992769928E0,-4.022135925E-1,1.001329072E1
1.554758242E1,4.758604431E-1,-1.007045837E1,-4.158352661E-1,1.009026729E1
1.555752242E1,3.926335144E-1,-9.956994324E0,-5.827381897E-1,9.981757402E0
1.556746142E1,1.571731567E-1,-9.777517548E0,-8.003855896E-1,9.811481534E0
1.557740142E1,-2.130070496E-1,-9.650581512E0,-1.122366028E0,9.717962803E0
1.558734142E1,-5.445675659E-1,-9.603579254E0,-1.460512848E0,9.729254139E0
1.559728142E1,-8.041278076E-1,-9.586814117E0,-1.666185150E0,9.763698040E0
1.560722142E1,-9.886940002E-1,-9.600735168E0,-1.807042236E0,9.819217547E0
1.561716042E1,-1.110540619E0,-9.628577271E0,-1.883832550E0,9.873784776E0
1.562710042E1,-1.152752838E0,-9.726024628E0,-1.942959595E0,9.984963002E0
1.563704042E1,-1.090332642E0,-9.977052612E0,-1.980232086E0,1.022994248E1
1.564698042E1,-8.933422852E-1,-1.022837997E1,-1.967807922E0,1.045418985E1
1.565692042E1,-5.427713013E-1,-1.035816010E1,-1.865121460E0,1.053872665E1
1.566685942E1,7.185058594E-3,-1.032732422E1,-1.735191650E0,1.047208514E1
1.567679942E1,5.278024292E-1,-1.020173538E1,-1.588197327E0,1.033810190E1
1.568673942E1,7.955955505E-1,-1.018526962E1,-1.415157166E0,1.031384309E1
1.569667942E1,7.912545776E-1,-1.027433441E1,-1.210083618E0,1.037556426E1
1.570661942E1,7.018904114E-1,-1.063014450E1,-1.179397430E0,1.071837677E1
1.571655842E1,4.736151123E-1,-1.105121887E1,-1.213676147E0,1.112774728E1
1.572649842E1,-3.472778320E-2,-1.160821060E1,-1.331331482E0,1.168435719E1
1.573643842E1,-6.466552734E-1,-1.216235825E1,-1.437610474E0,1.226408761E1
1.574637842E1,-1.240320740E0,-1.260319153E1,-1.419498138E0,1.274338288E1
1.575631842E1,-1.806443481E0,-1.281634827E1,-1.321901093E0,1.301035908E1
1.576625742E1,-2.289189606E0,-1.275198212E1,-1.103205872E0,1.300271126E1
1.577619742E1,-2.681374054E0,-1.234467911E1,-9.520202637E-1,1.266835473E1
1.578613742E1,-3.133433990E0,-1.194366302E1,-9.069639587E-1,1.238111783E1
1.579607742E1,-3.986809387E0,-1.195024933E1,-5.544470215E-1,1.260993734E1
1.580601742E1,-4.812043304E0,-1.182885178E1,3.911366272E-1,1.277616856E1
1.581595642E1,-5.268444214E0,-1.134116592E1,3.920796661E0,1.310538803E1
1.582589642E1,-5.026098175E0,-1.032852173E1,7.088060303E0,1.349743023E1
1.583583642E1,-4.401896210E0,-9.225166168E0,7.232509918E0,1.252156463E1
1.584577642E1,-3.758085022E0,-8.513845367E0,6.039790192E0,1.109449555E1
1.585571642E1,-2.625390472E0,-8.509953461E0,3.894002380E0,9.719837322E0
1.586565542E1,-7.782316589E-1,-9.398805084E0,1.524130554E0,9.553332166E0
1.587559542E1,8.646020508E-1,-1.078118042E1,-1.657054138E-1,1.081706274E1
1.588553542E1,2.177970886E0,-1.250349884E1,-9.131011963E-1,1.272457442E1
1.589547542E1,3.807482300E0,-1.440903625E1,-1.215322723E0,1.495306847E1
1.590541542E1,5.012177124E0,-1.582509155E1,-2.167193298E0,1.674073382E1
1.591535442E1,5.653593292E0,-1.705583221E1,-4.327500916E0,1.848220208E1
1.592529442E1,6.243366852E0,-1.743334717E1,-5.359904022E0,1.927770200E1
1.593523442E1,6.168672180E0,-1.690509567E1,-4.939129028E0,1.866091562E1
1.594517442E1,5.554948425E0,-1.504820709E1,-4.355343018E0,1.662152224E1
1.595511442E1,5.076992340E0,-1.250364853E1,-3.399580536E0,1.391668874E1
1.596505442E1,4.271367645E0,-1.010982651E1,-1.914818115E0,1.114090221E1
1.597499342E1,3.314108276E0,-8.753796387E0,-3.405418396E-1,9.366335121E0
1.598493342E1,2.377056885E0,-8.545429688E0,1.443747711E0,8.986610898E0
1.599487342E1,1.080153809E0,-8.593479767E0,2.109712830E0,8.914343216E0
1.600481342E1,1.032852173E-2,-8.538544006E0,1.702858887E0,8.706696780E0
1.601475342E1,-6.719526672E-1,-8.457712097E0,8.572673035E-1,8.527562462E0
1.602469242E1,-1.377884674E0,-8.337961121E0,-1.844165039E-1,8.453056919E0
1.603463242E1,-1.877246246E0,-8.196954346E0,-6.611750793E-1,8.435121013E0
1.604457242E1,-1.880090332E0,-8.078400879E0,-7.475454712E-1,8.327912382E0
1.605451242E1,-1.601070557E0,-8.073161774E0,-7.970924377E-1,8.268901034E0
1.606445242E1,-1.011446686E0,-8.021369476E0,-8.051756287E-1,8.124881566E0
1.607439142E1,-3.844006348E-1,-7.775131531E0,-1.020727386E0,7.851262228E0
1.608433142E1,1.407073975E-1,-7.438182220E0,-1.188827820E0,7.533901041E0
1.609427142E1,4.578977966E-1,-7.132517853E0,-1.053060150E0,7.224362740E0
1.610421142E1,7.670050049E-1,-6.885980530E0,-7.071295166E-1,6.964557178E0
1.611415142E1,1.219514008E0,-6.631360016E0,-4.096980286E-1,6.754998338E0
1.612409042E1,1.891017609E0,-6.390959930E0,-3.049159241E-1,6.671828096E0
1.613403042E1,2.806214447E0,-6.080355835E0,-5.050497437E-1,6.715701143E0
1.614397042E1,3.628753967E0,-5.832920380E0,-8.195457458E-1,6.918270791E0
1.615391042E1,4.177812195E0,-5.526806946E0,-1.125659180E0,7.019032579E0
1.616385042E1,4.528083801E0,-5.172044678E0,-1.422342224E0,7.019732649E0
1.617378942E1,4.509821777E0,-4.852010193E0,-1.426234131E0,6.776034177E0
1.618372942E1,4.247417450E0,-4.867128754E0,-1.200802917E0,6.570496552E0
1.619366942E1,3.848197632E0,-5.234315186E0,-8.761280823E-1,6.555477167E0
1.620360942E1,3.442690887E0,-5.711971893E0,-4.739144897E-1,6.686055519E0
1.621354942E1,2.909799042E0,-6.325246582E0,-1.092727661E-2,6.962456046E0
1.622348842E1,2.207908630E0,-7.110064545E0,5.685177612E-1,7.466665306E0
1.623342842E1,1.627266083E0,-8.176746368E0,1.526675262E0,8.475724950E0
1.624336842E1,1.015338593E0,-9.692344666E0,4.120930481E0,1.058085656E1
1.625330842E1,-8.662486267E-1,-1.165057251E1,8.983718262E0,1.473748351E1
1.626324842E1,-3.941304016E0,-1.372001907E1,8.476423187E0,1.660188395E1
1.627318742E1,-5.934708710E0,-1.526226196E1,3.920197906E0,1.683821129E1
1.628312742E1,-8.440198517E0,-1.628119308E1,7.385641479E-1,1.835373739E1
1.629306742E1,-1.037208115E1,-1.643716873E1,-4.394860840E-1,1.944103215E1
1.630300742E1,-1.117276611E1,-1.541793823E1,-8.018824768E-1,1.905745359E1
