"Time (s)","Acceleration x (m/s^2)","Acceleration y (m/s^2)","Acceleration z (m/s^2)","Absolute acceleration (m/s^2)"
8.904624963E-3,-8.023315430E-2,3.041525116E0,9.135053558E0,9.628422296E0
1.884362497E-2,-5.179229736E-2,3.122806091E0,9.072333984E0,9.594886359E0
2.878262498E-2,-2.185455322E-2,3.178041229E0,9.093589783E0,9.632953795E0
3.872162499E-2,1.901046753E-2,3.207380219E0,9.156009979E0,9.701554927E0
4.866062501E-2,4.490661621E-3,3.179089050E0,9.234297180E0,9.766210717E0
5.859962502E-2,-3.008743286E-2,3.107238464E0,9.276509399E0,9.783121320E0
6.853862503E-2,-3.457809448E-2,3.059487762E0,9.271120605E0,9.762957456E0
7.847862504E-2,-3.906875610E-2,3.039878540E0,9.249116364E0,9.735940705E0
8.841762505E-2,6.885681152E-3,3.044069824E0,9.203910370E0,9.694244406E0
9.835662507E-2,3.861968994E-2,3.059487762E0,9.203610992E0,9.698887160E0
1.082956251E-1,3.412902832E-2,3.075953522E0,9.174721069E0,9.676681330E0
1.182346251E-1,-5.688171387E-3,3.082988892E0,9.189540253E0,9.692909930E0
1.281736251E-1,-1.451980591E-2,3.042423248E0,9.217831421E0,9.706954525E0
1.381126251E-1,-6.197113037E-2,3.015479279E0,9.210945740E0,9.692186395E0
1.480516251E-1,-7.843688965E-2,3.009491730E0,9.185947723E0,9.666686526E0
1.579906251E-1,-6.855743408E-2,2.998414764E0,9.192384338E0,9.669287515E0
1.679296251E-1,-2.395019531E-2,3.004851379E0,9.232949982E0,9.709638036E0
1.778696252E-1,1.197509766E-2,2.969375153E0,9.339827728E0,9.800495610E0
1.878086252E-1,-1.227447510E-2,2.938389587E0,9.458530884E0,9.904448016E0
1.977476249E-1,-2.050735474E-2,2.892285461E0,9.596244507E0,1.002265655E1
2.076866250E-1,-4.505630493E-2,2.844834137E0,9.692194977E0,1.010117591E1
2.176256250E-1,-4.550537109E-2,2.792293396E0,9.760752411E0,1.015240172E1
2.275646250E-1,-4.894821167E-2,2.748584290E0,9.779313812E0,1.015835076E1
2.375036250E-1,-3.173400879E-2,2.709814911E0,9.735904083E0,1.010603445E1
2.474426250E-1,-5.328918457E-2,2.677482147E0,9.651779022E0,1.001641596E1
2.573816250E-1,-5.852828979E-2,2.693798218E0,9.555978241E0,9.928579684E0
2.673216250E-1,-1.975891113E-2,2.701432343E0,9.460626526E0,9.838779466E0
2.772606250E-1,7.035369873E-3,2.677033081E0,9.371262360E0,9.746133276E0
2.871996250E-1,-1.092727661E-2,2.659818878E0,9.318122864E0,9.690313182E0
2.971386251E-1,-2.993774414E-4,2.649789734E0,9.316625977E0,9.686119208E0
3.070776251E-1,-1.347198486E-3,2.587219849E0,9.358688507E0,9.709724967E0
3.170166251E-1,-1.960922241E-2,2.550246735E0,9.347461853E0,9.689127206E0
3.269556251E-1,-5.538482666E-2,2.517315216E0,9.278155975E0,9.613746495E0
3.368946251E-1,-5.733078003E-2,2.530787201E0,9.231453094E0,9.572246179E0
3.468336251E-1,-4.924758911E-2,2.516267395E0,9.218579865E0,9.555953204E0
3.567726251E-1,-5.343887329E-2,2.502945099E0,9.222022705E0,9.555798902E0
3.667126251E-1,-2.559677124E-2,2.470462646E0,9.209299164E0,9.534937439E0
3.766516251E-1,-3.562591553E-2,2.429298248E0,9.171128540E0,9.487484276E0
3.865906252E-1,-1.796264648E-3,2.415826263E0,9.126970367E0,9.441282108E0
3.965296252E-1,1.616638184E-2,2.387235718E0,9.052724762E0,9.362210281E0
4.064686249E-1,1.886077881E-2,2.372715912E0,8.940009155E0,9.249535136E0
4.164076250E-1,2.469863892E-2,2.342179413E0,8.815168762E0,9.121053378E0
4.263466250E-1,2.454895020E-2,2.281256104E0,8.696465607E0,8.990731122E0
4.362856250E-1,5.373825073E-2,2.251917114E0,8.648265839E0,8.936807064E0
4.462246250E-1,4.670288086E-2,2.149380341E0,8.653804321E0,8.916857419E0
4.561646250E-1,1.167572021E-2,2.060465240E0,8.732839966E0,8.972633237E0
4.661036250E-1,-4.281097412E-2,1.958227844E0,8.880283356E0,9.093729793E0
4.760426250E-1,-1.213975525E-1,1.844464417E0,8.902736664E0,9.092607242E0
4.859816250E-1,-1.284329224E-1,1.746268616E0,8.773405609E0,8.946429180E0
4.959206250E-1,-8.562194824E-2,1.674268341E0,8.535250854E0,8.698333906E0
5.058596251E-1,-4.580474854E-2,1.589544525E0,8.308023376E0,8.458841664E0
5.157986251E-1,5.239105225E-3,1.507515106E0,8.225694580E0,8.362695772E0
5.257376251E-1,6.780899048E-2,1.388512573E0,8.159382477E0,8.276961256E0
5.356766251E-1,1.035845947E-1,1.283131714E0,8.071814575E0,8.173820851E0
5.456156251E-1,9.415420532E-2,1.198557587E0,7.879314880E0,7.970508659E0
5.555556251E-1,5.209167480E-2,1.098565521E0,7.527995453E0,7.607908733E0
5.654946251E-1,3.891906738E-3,1.013093262E0,7.056625671E0,7.128978817E0
5.754336251E-1,-4.805007935E-2,9.604028320E-1,6.539002075E0,6.609329054E0
5.853726252E-1,-1.106199646E-1,9.517208862E-1,6.100863190E0,6.175640945E0
5.953116252E-1,-2.315684509E-1,8.985813904E-1,5.752986603E0,5.827343075E0
6.052506249E-1,-3.519181824E-1,8.532257080E-1,5.563929749E0,5.639960528E0
6.151896250E-1,-4.201762390E-1,8.499325562E-1,5.482499084E0,5.563877212E0
6.251286250E-1,-3.809577942E-1,9.352551270E-1,5.487887878E0,5.580030857E0
6.350676250E-1,-2.459385681E-1,1.175355835E0,5.779331818E0,5.902764045E0
6.450076250E-1,-1.911524963E-1,1.488205261E0,6.607559509E0,6.775775738E0
6.549466250E-1,-3.185375977E-1,1.710043945E0,7.967631226E0,8.155296674E0
6.648856250E-1,-4.158352661E-1,1.899549866E0,9.469458160E0,9.667049525E0
6.748246250E-1,-3.906875610E-1,2.116748199E0,1.076920532E1,1.098221485E1
6.847636250E-1,-2.540217590E-1,2.420466614E0,1.159907959E1,1.185165950E1
6.947026250E-1,-1.594184875E-1,2.771037598E0,1.188738007E1,1.220712368E1
7.046416251E-1,-1.101708984E-1,3.136727142E0,1.181972076E1,1.222934969E1
7.145806251E-1,2.993774414E-4,3.333118744E0,1.174248138E1,1.220637332E1
7.245196251E-1,1.303788757E-1,3.432961121E0,1.213960556E1,1.261634828E1
7.344586251E-1,2.950364685E-1,3.538042603E0,1.308309357E1,1.355625794E1
7.443986251E-1,4.204756165E-1,3.506907349E0,1.407852356E1,1.451482086E1
7.543376251E-1,4.534071350E-1,3.365301819E0,1.483160751E1,1.521536775E1
7.642766251E-1,2.636018372E-1,3.192411346E0,1.531899399E1,1.565032118E1
7.742156251E-1,-6.137237549E-3,3.060834961E0,1.563798065E1,1.593471641E1
7.841546251E-1,-2.604583740E-1,3.111878815E0,1.572494980E1,1.603202029E1
7.940936252E-1,-3.595523071E-1,3.487896881E0,1.570504120E1,1.609170661E1
8.040326252E-1,-3.676354980E-1,4.038152618E0,1.564950668E1,1.616628875E1
8.139716249E-1,-3.288661194E-1,4.635260925E0,1.557840454E1,1.625670584E1
8.239106250E-1,-1.926493835E-1,5.210364990E0,1.562046707E1,1.646766555E1
8.338506250E-1,-5.418731689E-2,5.612578583E0,1.595981140E1,1.691802455E1
8.437896250E-1,4.565505981E-2,5.838458862E0,1.693982346E1,1.791779297E1
8.537286250E-1,2.269281006E-1,5.887407074E0,1.846425339E1,1.938147857E1
8.636676250E-1,6.259982300E-1,5.721402283E0,2.008538223E1,2.089375259E1
8.736066250E-1,1.095721436E0,5.454507294E0,2.150353317E1,2.221157793E1
8.835456250E-1,1.326990509E0,5.250631256E0,2.252246429E1,2.316444323E1
8.934846250E-1,1.348545685E0,5.214107208E0,2.301703583E1,2.363872729E1
9.034236250E-1,1.469344482E0,5.346881104E0,2.292602509E1,2.358708835E1
9.133626251E-1,1.673819275E0,5.574407959E0,2.217159393E1,2.292281118E1
9.233026251E-1,1.633553009E0,5.675597534E0,2.107257935E1,2.188457226E1
9.332416251E-1,1.517394562E0,5.649551697E0,2.019106247E1,2.102139206E1
9.431806251E-1,1.621727600E0,5.334307251E0,1.936328384E1,2.014997756E1
9.531196251E-1,1.995799713E0,4.748275909E0,1.820364532E1,1.891829918E1
9.630586251E-1,2.589914246E0,4.005370789E0,1.625335098E1,1.693877413E1
9.729976251E-1,2.971021729E0,3.166964264E0,1.368484222E1,1.435728176E1
9.829366251E-1,3.097508698E0,2.347418518E0,1.104867416E1,1.171230697E1
9.928756251E-1,3.228486328E0,1.618434448E0,8.583899689E0,9.312668141E0
1.002814625E0,3.453618164E0,1.104852448E0,6.495442657E0,7.439015571E0
1.012753625E0,3.705693970E0,9.159452820E-1,4.898413696E0,6.210119185E0
1.022693625E0,3.644620972E0,9.110055542E-1,3.832480316E0,5.366665494E0
1.032632625E0,3.381168823E0,8.572673035E-1,3.180286560E0,4.720321223E0
1.042571625E0,2.847977600E0,6.183641052E-1,2.807861023E0,4.046904261E0
1.052510625E0,2.147434387E0,2.197430420E-1,2.698588257E0,3.455740157E0
1.062449625E0,1.392105103E0,-2.932402039E-1,2.646945648E0,3.005040382E0
1.072388625E0,5.230123901E-1,-7.256909180E-1,2.726130981E0,2.869139139E0
1.082327625E0,-4.149371338E-1,-9.629475403E-1,2.849175110E0,3.035990711E0
1.092266625E0,-1.225351868E0,-9.470805359E-1,2.692151642E0,3.105821824E0
1.102205625E0,-1.666933594E0,-7.083270264E-1,2.106719055E0,2.778247642E0
1.112145625E0,-1.748513947E0,-4.058061218E-1,1.284329224E0,2.207143218E0
1.122084625E0,-1.752106476E0,-8.292755127E-2,2.065704346E-1,1.766189521E0
1.132023625E0,-1.640738068E0,2.583627319E-1,-8.322692871E-1,1.857806468E0
1.141962625E0,-1.391206970E0,5.135820007E-1,-1.620979156E0,2.196997208E0
1.151901625E0,-1.029708710E0,7.054829407E-1,-1.877395935E0,2.254467055E0
1.161840625E0,-6.084846497E-1,8.262817383E-1,-1.481918335E0,1.802519634E0
1.171779625E0,-1.134640503E-1,8.053253174E-1,-5.957611084E-1,1.008143966E0
1.181718625E0,3.576063538E-1,6.301895142E-1,3.237767029E-1,7.936324599E-1
1.191657625E0,5.054988098E-1,4.090992737E-1,1.055006104E0,1.239326083E0
1.201596625E0,3.270698547E-1,2.312690735E-1,1.546883240E0,1.597907329E0
1.211536625E0,-8.981323242E-3,-5.688171387E-3,1.598825226E0,1.598860570E0
1.221475625E0,-3.436853027E-1,-2.857557678E-1,1.405726776E0,1.475074139E0
1.231414625E0,-4.284091187E-1,-3.758683777E-1,1.193318481E0,1.322429737E0
1.241353625E0,-3.607498169E-1,-2.404000854E-1,1.084195404E0,1.167652476E0
1.251292625E0,-1.889071655E-1,-1.392105103E-2,1.034947815E0,1.052139103E0
1.261231625E0,8.352630615E-2,1.963916016E-1,9.891430664E-1,1.011904299E0
1.271170625E0,3.939807129E-1,3.483256531E-1,1.085542603E0,1.206214867E0
1.281109625E0,5.674699402E-1,4.945715332E-1,1.316961365E0,1.516908162E0
1.291048625E0,6.538403320E-1,6.099815369E-1,1.552122345E0,1.791275643E0
1.300988625E0,7.063810730E-1,6.331832886E-1,1.694326630E0,1.941813077E0
1.310927625E0,6.692582703E-1,5.679190063E-1,1.777852936E0,1.982725319E0
1.320866625E0,6.538403320E-1,5.284011841E-1,1.914069672E0,2.090544833E0
1.330805625E0,5.507048035E-1,5.412744141E-1,2.199825439E0,2.331412820E0
1.340744625E0,3.710783386E-1,6.027964783E-1,2.461481323E0,2.561240526E0
1.350683625E0,3.052153015E-1,8.821156311E-1,2.594255219E0,2.757071727E0
1.360622625E0,2.659968567E-1,1.364861755E0,2.659669189E0,3.001240100E0
1.370561625E0,2.742297363E-1,1.847907257E0,2.950065308E0,3.491825955E0
1.380500625E0,2.647993469E-1,2.178419952E0,3.482508087E0,4.116247655E0
1.390439625E0,2.306703186E-1,2.627635803E0,4.604874115E0,5.306839391E0
1.400379625E0,-2.074685669E-1,3.238365784E0,6.522536316E0,7.285158622E0
1.410318625E0,-1.031804352E0,3.916755066E0,8.613687744E0,9.518466632E0
1.420257625E0,-1.995200958E0,4.571194153E0,1.066157913E1,1.177055277E1
1.430196625E0,-2.344125366E0,5.105582886E0,1.201476517E1,1.326335110E1
1.440135625E0,-2.157613220E0,5.482648773E0,1.301992493E1,1.429101737E1
1.450074625E0,-1.241967316E0,6.046526184E0,1.463386871E1,1.588247699E1
1.460013625E0,2.390528870E-1,6.876550140E0,1.679552353E1,1.815030850E1
1.469952625E0,1.384321289E0,7.587421875E0,1.887754395E1,2.039232654E1
1.479891625E0,1.757794647E0,7.870632935E0,2.064282303E1,2.216219410E1
1.489831625E0,1.084794159E0,7.423812103E0,2.203118591E1,2.327365286E1
1.499771250E0,-5.074447632E-1,6.260131989E0,2.314217560E1,2.397930450E1
1.509710250E0,-2.089953918E0,5.186863861E0,2.419643326E1,2.483422732E1
1.519649250E0,-2.928659821E0,5.002147980E0,2.485206985E1,2.551908911E1
1.529588250E0,-3.027903442E0,5.426365814E0,2.499457352E1,2.575543342E1
1.539527250E0,-2.623594208E0,6.061794434E0,2.515369263E1,2.600647710E1
1.549466250E0,-1.517843628E0,6.695875854E0,2.551070023E1,2.641844864E1
1.559405250E0,2.185455322E-2,7.395371246E0,2.592384109E1,2.695806986E1
1.569344250E0,1.584754486E0,7.656877441E0,2.646766022E1,2.759848286E1
1.579284250E0,2.771636353E0,7.333549805E0,2.747805908E1,2.857458052E1
1.589223250E0,3.467838593E0,6.732699280E0,2.843666565E1,2.942786260E1
1.599162250E0,3.860771484E0,5.982459412E0,2.865341492E1,2.952479574E1
1.609101250E0,4.002975769E0,5.199886780E0,2.809552505E1,2.885170993E1
1.619040250E0,3.784130859E0,4.540208588E0,2.690250595E1,2.754410948E1
1.628979250E0,3.116818542E0,4.104913788E0,2.487377472E1,2.540215628E1
1.638918250E0,2.277962952E0,3.832330627E0,2.234179001E1,2.278226183E1
1.648857250E0,1.488055573E0,3.321892090E0,1.982372635E1,2.015513341E1
1.658796250E0,9.357041931E-1,2.780467987E0,1.724069778E1,1.748851637E1
1.668735250E0,7.596702576E-1,2.363285522E0,1.475421844E1,1.496159013E1
1.678675250E0,4.707710266E-1,2.049238586E0,1.225995529E1,1.243895124E1
1.688614250E0,3.526666260E-1,1.667682037E0,9.868228912E0,1.001436363E1
1.698553250E0,5.577401733E-1,1.337768097E0,7.752678223E0,7.886996717E0
1.708492250E0,8.963360596E-1,1.097068634E0,5.863456879E0,6.032172452E0
1.718431250E0,1.293160858E0,8.322692871E-1,4.092190247E0,4.371608192E0
1.728370250E0,1.488504639E0,4.514611816E-1,2.351460114E0,2.819366582E0
1.738309250E0,1.354084167E0,-1.098715210E-1,7.828720093E-1,1.567961819E0
1.748248250E0,1.173559570E0,-5.807922363E-1,-2.019300842E-1,1.324891485E0
1.758187250E0,6.342311096E-1,-8.361611938E-1,-4.285588074E-1,1.133612497E0
1.768126250E0,-5.942642212E-2,-9.273216248E-1,-2.709365845E-1,9.679171081E-1
1.778066250E0,-3.838018799E-1,-8.702902222E-1,-1.945953369E-1,9.708636871E-1
1.788005250E0,-3.914360046E-1,-5.995033264E-1,-3.845503235E-1,8.127147934E-1
1.797944250E0,-2.745291138E-1,-3.405418396E-1,-8.455915833E-1,9.520294662E-1
1.807883250E0,-7.259902954E-2,-1.948947144E-1,-1.632954254E0,1.646145244E0
1.817822250E0,1.830693054E-1,-5.284011841E-2,-2.597847748E0,2.604826169E0
1.827761250E0,5.170248413E-1,1.372645569E-1,-3.285517731E0,3.328781009E0
1.837700250E0,8.601113892E-1,2.990780640E-1,-3.335364075E0,3.457440209E0
1.847639250E0,9.419911194E-1,2.914439392E-1,-2.678829346E0,2.854542608E0
1.857578250E0,6.387217712E-1,1.031355286E-1,-1.779649200E0,1.893608649E0
1.867518250E0,2.890489197E-1,-2.020797729E-1,-1.089434509E0,1.145099586E0
1.877457250E0,-6.182144165E-2,-4.348457336E-1,-4.998106384E-1,6.653746140E-1
1.887396250E0,-3.604504395E-1,-5.364843750E-1,5.194198608E-2,6.484118859E-1
1.897335250E0,-5.697152710E-1,-5.384303284E-1,4.426295471E-1,9.002242079E-1
1.907274250E0,-6.435118103E-1,-5.011578369E-1,6.481521606E-1,1.041809892E0
1.917213250E0,-6.246510315E-1,-3.611988831E-1,8.532257080E-1,1.117429037E0
1.927152250E0,-4.770579529E-1,-1.143621826E-1,1.074465637E0,1.181160194E0
1.937091250E0,-1.663041687E-1,1.408570862E-1,1.243464203E0,1.262418718E0
1.947030250E0,1.061293030E-1,3.532653809E-1,1.387913818E0,1.436093529E0
1.956969250E0,2.507286072E-1,5.593867493E-1,1.521585846E0,1.640427340E0
1.966909250E0,3.014730835E-1,7.244934082E-1,1.650767212E0,1.827788037E0
1.976848250E0,3.537144470E-1,8.270301819E-1,1.875599670E0,2.080136283E0
1.986787250E0,4.014651489E-1,9.366023254E-1,2.184108124E0,2.410129971E0
1.996726250E0,3.763174438E-1,9.563612366E-1,2.405198364E0,2.615572749E0
2.006665250E0,2.900967407E-1,8.882528687E-1,2.494113464E0,2.663409704E0
2.016604250E0,1.859133911E-1,8.228388977E-1,2.363884277E0,2.509895718E0
2.026543250E0,5.733078003E-2,9.330097961E-1,2.182910614E0,2.374635308E0
2.036482250E0,-7.005432129E-2,1.197809143E0,2.128723297E0,2.443586959E0
2.046421250E0,-2.573149109E-1,1.596130829E0,2.297871552E0,2.809636676E0
2.056361250E0,-2.332150269E-1,2.028431854E0,2.668051758E0,3.359676356E0
2.066300250E0,-1.571731567E-2,2.370021515E0,3.533252563E0,4.254541420E0
2.076239250E0,-2.438429260E-1,2.733615417E0,4.977149963E0,5.683672614E0
2.086178250E0,-1.028211823E0,3.159180450E0,6.950047302E0,7.703297876E0
2.096117250E0,-1.936522980E0,3.808380432E0,9.260642395E0,1.019869503E1
2.106056250E0,-2.998414764E0,4.788542175E0,1.156255554E1,1.286908380E1
2.115995250E0,-3.234473877E0,5.786666565E0,1.365580261E1,1.517986417E1
2.125934250E0,-2.810854797E0,6.477629700E0,1.592194016E1,1.741748459E1
2.135873250E0,-1.582509155E0,7.085066528E0,1.814152451E1,1.954014878E1
2.145812250E0,7.229965210E-2,7.543862457E0,2.114173553E1,2.244745129E1
2.155752250E0,9.363029480E-1,7.777975616E0,2.533406754E1,2.651770250E1
2.165691250E0,8.951385498E-1,7.277117157E0,2.951412506E1,3.041120329E1
2.175630250E0,-2.621049500E-1,5.922733612E0,3.273797104E1,3.327044064E1
2.185569250E0,-2.217488708E0,4.376449127E0,3.429623062E1,3.464537484E1
2.195508250E0,-3.436254272E0,3.086282043E0,3.421195587E1,3.452232473E1
2.205447250E0,-3.723207550E0,2.913092194E0,3.337594437E1,3.370907953E1
2.215386250E0,-3.285667419E0,3.792513428E0,3.242108002E1,3.280709067E1
2.225325250E0,-2.117646332E0,4.772375793E0,3.082659576E1,3.126562015E1
2.235264250E0,-6.053411865E-1,5.461542664E0,2.902404419E1,2.953963485E1
2.245204250E0,4.391867065E-1,5.916296997E0,2.809073502E1,2.871036135E1
2.255143250E0,1.339414673E0,5.786067810E0,2.798161194E1,2.860495095E1
2.265082250E0,2.301314392E0,5.232818298E0,2.779554886E1,2.837729676E1
2.275021250E0,3.036286011E0,4.680616608E0,2.706431946E1,2.763339632E1
2.284960250E0,3.266956329E0,4.079466705E0,2.566173615E1,2.618854242E1
2.294899250E0,2.887794800E0,3.410807190E0,2.342448853E1,2.384700457E1
2.304838250E0,2.003284149E0,2.742447052E0,2.058758789E1,2.086583184E1
2.314777250E0,9.279203796E-1,2.167941742E0,1.775038788E1,1.790634741E1
2.324716250E0,1.676513672E-1,1.555415497E0,1.494207779E1,1.502375163E1
2.334655250E0,-2.532733154E-1,1.055006104E0,1.206116867E1,1.210987097E1
2.344595250E0,-2.784210205E-1,6.363267517E-1,9.106163635E0,9.132614420E0
2.354534250E0,-1.892065430E-1,2.273771667E-1,6.120921478E0,6.128064885E0
2.364473250E0,-1.957928467E-1,-2.728825378E-1,3.425626373E0,3.442051099E0
2.374412250E0,-2.171983337E-1,-8.237370300E-1,1.212328949E0,1.481708234E0
2.384351250E0,-1.667532349E-1,-1.413809967E0,-4.689747620E-1,1.498867103E0
2.394290250E0,-2.058219910E-1,-1.797611847E0,-1.591640167E0,2.409790337E0
2.404229250E0,-3.736230469E-1,-1.889670410E0,-2.368824005E0,3.053158300E0
2.414168250E0,-5.501060486E-1,-1.701960754E0,-3.215613098E0,3.679599798E0
2.424107250E0,-5.876779175E-1,-1.452429657E0,-4.182153168E0,4.466018625E0
2.434046250E0,-5.218148804E-1,-1.275497589E0,-5.073250122E0,5.257095364E0
2.443986250E0,-2.556683350E-1,-1.044228516E0,-5.815556488E0,5.914091372E0
2.453925250E0,2.046244812E-1,-7.367678833E-1,-6.237978058E0,6.284669311E0
2.463864250E0,5.816903687E-1,-4.836442566E-1,-6.493945770E0,6.537859521E0
2.473803250E0,8.848100281E-1,-3.511697388E-1,-6.602021027E0,6.670299139E0
2.483742250E0,8.726852417E-1,-3.222798157E-1,-6.415957947E0,6.483051765E0
2.493681250E0,6.571334839E-1,-3.104544067E-1,-5.752387848E0,5.798117997E0
2.503619792E0,4.848417664E-1,-3.936813354E-1,-4.801565094E0,4.842012380E0
2.513558792E0,2.637515259E-1,-6.129753113E-1,-3.578757935E0,3.640441176E0
2.523497792E0,-5.523513794E-2,-7.593708801E-1,-2.313289490E0,2.435365130E0
2.533437792E0,-3.359014893E-1,-8.092172241E-1,-1.344204712E0,1.604540007E0
2.543376792E0,-4.568499756E-1,-7.451504517E-1,-6.679110718E-1,1.100030134E0
2.553315792E0,-4.718188477E-1,-6.366261292E-1,-1.336720276E-1,8.036006871E-1
2.563254792E0,-4.818479919E-1,-5.258564758E-1,3.504212952E-1,7.946682356E-1
2.573193792E0,-4.525090027E-1,-4.580474854E-1,9.117539978E-1,1.116184236E0
2.583132792E0,-4.525090027E-1,-3.938310242E-1,1.443747711E0,1.563417643E0
2.593071792E0,-4.980143738E-1,-3.784130859E-1,1.864971771E0,1.967062401E0
2.603010792E0,-4.026626587E-1,-3.233276367E-1,2.285896454E0,2.343501776E0
2.612949792E0,-3.092568970E-1,-1.661544800E-1,2.811902618E0,2.833733134E0
2.622888792E0,-1.472937012E-1,2.305206299E-2,3.315305786E0,3.318656247E0
2.632828792E0,4.580474854E-2,1.675016785E-1,3.451073456E0,3.455439608E0
2.642767792E0,3.002755737E-1,2.673440552E-1,3.162174225E0,3.187629855E0
2.652706792E0,5.557942200E-1,3.689826965E-1,2.834804993E0,2.912245661E0
2.662645792E0,6.861730957E-1,5.748046875E-1,2.863694916E0,3.000330401E0
2.672584792E0,6.303392029E-1,8.482859802E-1,3.265309753E0,3.432078729E0
2.682523792E0,2.914439392E-1,1.128652954E0,3.650458832E0,3.832055159E0
2.692462792E0,1.118174744E-1,1.256038055E0,3.865561523E0,4.066042380E0
2.702401792E0,8.996292114E-2,1.277593231E0,3.964954834E0,4.166677889E0
2.712340792E0,5.837860107E-3,1.416654053E0,4.334985352E0,4.560596538E0
2.722280792E0,-3.848497009E-1,1.901795197E0,5.521867218E0,5.852858433E0
2.732219792E0,-1.199755096E0,2.945125580E0,7.449558563E0,8.099944429E0
2.742158792E0,-2.168241119E0,4.203259277E0,9.698332214E0,1.079010222E1
2.752097792E0,-3.289110260E0,5.287005615E0,1.230516129E1,1.379085454E1
2.762036792E0,-3.341651001E0,6.181545410E0,1.546389267E1,1.698558541E1
2.771975792E0,-1.701212311E0,6.959777069E0,1.879880768E1,2.011784756E1
2.781914792E0,1.165476379E0,7.654931488E0,2.245824783E1,2.375561422E1
2.791853792E0,3.436403961E0,8.235124969E0,2.819282272E1,2.957129366E1
2.801792792E0,4.159849548E0,8.222700806E0,3.550586517E1,3.668219757E1
2.811731792E0,3.059637451E0,6.872957611E0,4.110811523E1,4.179086103E1
2.821671792E0,4.499642944E-1,4.972210236E0,4.278133575E1,4.307166158E1
2.831610792E0,-1.868863678E0,3.861968994E0,4.105138321E1,4.127497449E1
2.841549792E0,-1.928888855E0,4.338727570E0,3.787229416E1,3.816878088E1
2.851488792E0,-9.716294861E-1,5.790558472E0,3.538776077E1,3.587155201E1
2.861427792E0,4.056564331E-2,6.986571350E0,3.387171341E1,3.458477691E1
2.871366792E0,4.806504822E-1,7.417225800E0,3.219819351E1,3.304496828E1
2.881305792E0,3.137475586E-1,7.255262604E0,3.027125061E1,3.113014434E1
2.891244792E0,2.353106689E-1,6.704857178E0,2.830763397E1,2.909179647E1
2.901183792E0,4.508624268E-1,6.354585571E0,2.640643753E1,2.716401991E1
2.911123792E0,7.461982727E-1,6.239175568E0,2.425705719E1,2.505771233E1
2.921062792E0,8.969348145E-1,6.040239258E0,2.157074341E1,2.241842888E1
2.931001792E0,9.174421692E-1,5.641618195E0,1.882126099E1,1.967001325E1
2.940940792E0,8.295748901E-1,5.062023468E0,1.650752243E1,1.728613817E1
2.950879792E0,7.391629028E-1,4.279001770E0,1.439616302E1,1.503681242E1
2.960818792E0,6.318360901E-1,3.397185516E0,1.238045471E1,1.285362770E1
2.970757792E0,3.932322693E-1,2.451601868E0,1.034199371E1,1.063587407E1
2.980696792E0,2.104623413E-1,1.338067474E0,8.144263916E0,8.256134307E0
2.990635792E0,6.870712280E-2,1.989363098E-1,6.110143890E0,6.113767634E0
3.000574792E0,-3.562591553E-2,-8.523275757E-1,4.187841339E0,4.273844474E0
3.010514792E0,-1.176553345E-1,-1.748963013E0,2.354004822E0,2.934970715E0
3.020453792E0,-2.284249878E-1,-2.425106964E0,5.029541016E-1,2.487224274E0
3.030392792E0,-2.971321106E-1,-2.782563629E0,-1.286724243E0,3.080033623E0
3.040331792E0,-1.315763855E-1,-2.881956940E0,-2.856809235E0,4.060092013E0
3.050270792E0,1.945953369E-2,-2.722388763E0,-4.163891144E0,4.974913940E0
3.060209792E0,8.711883545E-2,-2.365530853E0,-5.188660126E0,5.703114922E0
3.070148792E0,1.707948303E-1,-1.985770569E0,-5.915398865E0,6.242147015E0
3.080087792E0,3.844006348E-1,-1.648521881E0,-6.508615265E0,6.725136497E0
3.090026792E0,4.911286926E-1,-1.393601990E0,-6.903643799E0,7.060002238E0
3.099966792E0,4.040098572E-1,-1.152154083E0,-7.054679718E0,7.159552285E0
3.109905792E0,3.110531616E-1,-1.002764740E0,-6.784341888E0,6.865099129E0
3.119844792E0,3.369493103E-1,-9.310638428E-1,-5.989644470E0,6.070935315E0
3.129783792E0,4.348457336E-1,-9.009764099E-1,-4.886588287E0,4.987944907E0
3.139722792E0,4.287084961E-1,-9.093589783E-1,-3.712579651E0,3.846293331E0
3.149661792E0,2.884501648E-1,-9.395960999E-1,-2.595003662E0,2.774903302E0
3.159600792E0,1.550775146E-1,-9.984237671E-1,-1.600920868E0,1.893105037E0
3.169539792E0,-9.879455566E-3,-1.093476105E0,-4.457730103E-1,1.180889991E0
3.179478792E0,-2.872526550E-1,-1.111438751E0,8.244854736E-1,1.413359997E0
3.189417792E0,-5.674699402E-1,-1.122366028E0,1.844913483E0,2.232808409E0
3.199357792E0,-7.417076111E-1,-1.121018829E0,2.660866699E0,2.981111368E0
3.209296792E0,-9.309141541E-1,-9.572593689E-1,3.270399170E0,3.532486007E0
3.219235792E0,-1.097218323E0,-7.548802185E-1,3.647165680E0,3.882724519E0
3.229174792E0,-1.103954315E0,-5.915698242E-1,3.667972412E0,3.875911712E0
3.239113792E0,-8.458909607E-1,-3.550616455E-1,3.343746643E0,3.467310471E0
3.249052792E0,-5.499563599E-1,3.143463135E-2,2.900218964E0,2.952068795E0
3.258991792E0,-2.941383362E-1,4.138893127E-1,2.478994904E0,2.530461906E0
3.268930792E0,6.586303711E-3,6.620732117E-1,2.000140686E0,2.106880889E0
3.278869792E0,3.622467041E-1,7.951464844E-1,1.644629974E0,1.862334116E0
3.288808792E0,6.670129395E-1,9.515711975E-1,1.500180359E0,1.897613004E0
3.298748792E0,7.080276489E-1,1.180894318E0,1.523531799E0,2.053524698E0
3.308687792E0,5.574407959E-1,1.489851837E0,1.608854370E0,2.262478977E0
3.318626792E0,4.614903259E-1,1.883233795E0,1.823957062E0,2.662022203E0
3.328565792E0,4.170327759E-1,2.324665833E0,2.104024658E0,3.163053482E0
3.338504792E0,1.598675537E-1,2.631677399E0,2.490071869E0,3.626532983E0
3.348443792E0,-1.619631958E-1,2.919079742E0,3.191213837E0,4.327944590E0
3.358382792E0,-5.125341797E-1,3.551664276E0,4.387077026E0,5.667755751E0
3.368321792E0,-1.289718018E0,4.681514740E0,6.421496429E0,8.050811712E0
3.378260792E0,-2.361040192E0,5.997428284E0,9.223070526E0,1.125205256E1
3.388199792E0,-2.893033905E0,7.102280731E0,1.226354782E1,1.446397739E1
3.398139792E0,-2.455493774E0,8.098309479E0,1.577090424E1,1.789786262E1
3.408078792E0,-6.417155457E-1,9.351802826E0,2.026635590E1,2.232920053E1
3.418017792E0,1.858984222E0,1.056353302E1,2.597159180E1,2.809924612E1
3.427956792E0,3.320544891E0,1.100017502E1,3.314766907E1,3.508272842E1
3.437895792E0,3.811224518E0,1.038136185E1,4.085020157E1,4.232064596E1
3.447834792E0,3.672163696E0,8.898994446E0,4.537139969E1,4.638147042E1
3.457773792E0,2.871478729E0,7.450007629E0,4.432283020E1,4.503622187E1
3.467712792E0,2.343825989E0,6.888974304E0,3.980642212E1,4.046606886E1
3.477651792E0,2.498454437E0,7.467820587E0,3.527130295E1,3.613966561E1
3.487591792E0,2.515968018E0,8.710835724E0,3.226270935E1,3.351255241E1
3.497530792E0,2.410287781E0,9.010213165E0,2.975826736E1,3.118570033E1
3.507470250E0,1.877695312E0,8.573122101E0,2.737207947E1,2.874464988E1
3.517409250E0,1.230740662E0,7.832911377E0,2.524185928E1,2.645790399E1
3.527348250E0,1.022224274E0,7.000492401E0,2.352373215E1,2.456456412E1
3.537287250E0,1.019380188E0,6.364015961E0,2.218641312E1,2.310360929E1
3.547226250E0,1.219663696E0,5.765859833E0,2.050061874E1,2.133091859E1
3.557165250E0,1.498234406E0,5.074447632E0,1.823103836E1,1.898329489E1
3.567104250E0,1.697170715E0,4.304897919E0,1.556867477E1,1.624180313E1
3.577044250E0,1.792672119E0,3.613785095E0,1.280392410E1,1.342436548E1
3.586983250E0,1.889969788E0,3.058889008E0,1.027568161E1,1.088661657E1
3.596922250E0,1.997446289E0,2.353555756E0,8.398435364E0,8.947778100E0
3.606861250E0,2.134710846E0,1.500779114E0,6.862629089E0,7.342002885E0
3.616800250E0,2.271226959E0,7.056326294E-1,5.305267639E0,5.813970591E0
3.626739250E0,2.086960144E0,-9.280700684E-2,3.606001282E0,4.167404591E0
3.636678250E0,1.620380402E0,-8.553213501E-1,1.822160797E0,2.584081506E0
3.646617250E0,1.148411865E0,-1.426683197E0,1.616638184E-2,1.831539273E0
3.656556250E0,8.391549683E-1,-1.712289276E0,-1.560953979E0,2.464283456E0
3.666495250E0,7.102729797E-1,-1.646426239E0,-2.829116821E0,3.349493851E0
3.676435250E0,8.385562134E-1,-1.279539185E0,-3.781586151E0,4.079312548E0
3.686374250E0,9.515711975E-1,-9.395960999E-1,-4.493505707E0,4.688274961E0
3.696313250E0,1.025068359E0,-7.613168335E-1,-5.036277008E0,5.195618785E0
3.706252250E0,1.118324432E0,-7.126679993E-1,-5.385051727E0,5.545928896E0
3.716191250E0,1.161285095E0,-6.324348450E-1,-5.447471924E0,5.605667424E0
3.726130250E0,1.044228516E0,-6.177653503E-1,-5.227429504E0,5.366382995E0
3.736069250E0,7.789801025E-1,-6.956034851E-1,-4.734055481E0,4.847881548E0
3.746008250E0,4.915777588E-1,-8.054750061E-1,-3.975582733E0,4.086036802E0
3.755947250E0,1.429527283E-1,-9.556127930E-1,-3.081641693E0,3.229573783E0
3.765887250E0,-2.456391907E-1,-1.131946106E0,-2.289938049E0,2.566214502E0
3.775826250E0,-5.245092773E-1,-1.297950897E0,-1.702409821E0,2.204083871E0
3.785765250E0,-7.821235657E-1,-1.423390045E0,-1.038540344E0,1.927776579E0
3.795704250E0,-1.062191162E0,-1.436113586E0,-2.209405518E-1,1.799857501E0
3.805643250E0,-1.130449219E0,-1.289268951E0,6.824308777E-1,1.845492283E0
3.815582250E0,-9.616003418E-1,-9.910890198E-1,1.577868805E0,2.096807723E0
3.825521250E0,-8.461903381E-1,-7.018904114E-1,2.342029724E0,2.587236260E0
3.835460250E0,-6.432124329E-1,-4.977149963E-1,2.836152191E0,2.950457880E0
3.845399250E0,-3.601510620E-1,-3.924838257E-1,3.088677063E0,3.134274771E0
3.855338250E0,-2.836601257E-1,-2.154020691E-1,3.017874298E0,3.038819902E0
3.865278250E0,-3.291654968E-1,-8.696914673E-2,2.800077209E0,2.820699547E0
3.875217250E0,-3.725752258E-1,-8.277786255E-2,2.595003662E0,2.622919839E0
3.885156250E0,-2.445913696E-1,-5.224136353E-2,2.550246735E0,2.562481708E0
3.895095250E0,-2.589614868E-2,6.661148071E-2,2.790946198E0,2.791861096E0
3.905034250E0,7.170089722E-2,1.523831177E-1,3.233126678E0,3.237509807E0
3.914973250E0,1.727407837E-1,4.384382629E-1,3.651806030E0,3.682085655E0
3.924912250E0,4.167333984E-1,1.019829254E0,3.885320435E0,4.038493941E0
3.934851250E0,4.816983032E-1,1.642234955E0,3.623814240E0,4.007617565E0
3.944790250E0,2.894979858E-1,2.032174072E0,3.156336365E0,3.765102893E0
3.954729250E0,-6.436614990E-2,2.200124817E0,2.852917328E0,3.603308132E0
3.964669250E0,-3.393443298E-1,2.440824280E0,3.262315979E0,4.088457323E0
3.974608250E0,-4.317022705E-1,3.046315155E0,4.767735443E0,5.674302083E0
3.984547250E0,-4.559518433E-1,3.882925415E0,7.408094788E0,8.376447352E0
3.994486250E0,-5.987548828E-1,4.819078674E0,1.067714676E1,1.172959887E1
4.004425250E0,-6.376739502E-1,5.770200806E0,1.429512314E1,1.542894653E1
4.014364250E0,1.678010559E-1,6.609206085E0,1.786504944E1,1.904914050E1
4.024303250E0,1.527872772E0,7.371720428E0,2.119292908E1,2.249037350E1
4.034242250E0,2.668351135E0,7.933053131E0,2.444416809E1,2.583739119E1
4.044181250E0,3.373235321E0,7.938292236E0,2.801289688E1,2.931070780E1
4.054120250E0,3.296594696E0,7.240593109E0,3.152055267E1,3.250905975E1
4.064060250E0,2.807561646E0,5.944438477E0,3.407259567E1,3.470101623E1
4.073999250E0,2.317181396E0,4.701123962E0,3.509676590E1,3.548595318E1
4.083938250E0,1.817370758E0,4.281995544E0,3.521172684E1,3.551765799E1
4.093877250E0,1.931732941E0,4.623884583E0,3.476819916E1,3.512747605E1
4.103816250E0,2.182910614E0,5.331014099E0,3.345557877E1,3.394790952E1
4.113755250E0,2.124831390E0,5.673801270E0,3.151067322E1,3.208783969E1
4.123694250E0,1.700463867E0,5.663921814E0,2.960453705E1,3.018940545E1
4.133633250E0,1.162183228E0,5.564079437E0,2.812411560E1,2.869277833E1
4.143572250E0,7.409591675E-1,5.264552307E0,2.691522949E1,2.743527128E1
4.153512250E0,3.752696228E-1,4.884792023E0,2.565844299E1,2.612197767E1
4.163451250E0,2.529739380E-1,4.407883759E0,2.398567154E1,2.438864232E1
4.173390250E0,2.020797729E-1,3.892355804E0,2.185500229E1,2.219982872E1
4.183329250E0,2.110610962E-2,3.350482635E0,1.943064377E1,1.971740593E1
4.193268250E0,-4.430786133E-1,2.646047516E0,1.668909485E1,1.690336573E1
4.203207250E0,-8.671467590E-1,1.833836517E0,1.391386597E1,1.406095893E1
4.213146250E0,-1.079255676E0,1.051114197E0,1.114133148E1,1.124272658E1
4.223085250E0,-1.125210114E0,4.712200928E-1,8.680448914E0,8.765748087E0
4.233024250E0,-9.825567627E-1,1.206491089E-1,6.806645508E0,6.878255380E0
4.242963250E0,-6.685098267E-1,-2.637515259E-1,5.357958069E0,5.405939782E0
4.252903250E0,-4.026626587E-1,-7.755372620E-1,3.866759033E0,3.964267988E0
4.262842250E0,-2.586621094E-1,-1.381926270E0,2.203417969E0,2.613747701E0
4.272781250E0,-1.666035461E-1,-1.912572784E0,6.822811890E-1,2.037449145E0
4.282720250E0,-7.259902954E-2,-2.245929565E0,-3.787124634E-1,2.278792084E0
4.292659250E0,7.738906860E-2,-2.262095947E0,-1.116228790E0,2.523694485E0
4.302598250E0,2.960842896E-1,-2.049837341E0,-1.731150055E0,2.699329462E0
4.312537250E0,3.565585327E-1,-1.921853485E0,-2.419418793E0,3.110344370E0
4.322476250E0,2.052232361E-1,-2.009421387E0,-3.232677612E0,3.811836228E0
4.332415250E0,-3.906875610E-2,-2.236648865E0,-4.137845306E0,4.703816354E0
4.342354250E0,-2.998265076E-1,-2.316882019E0,-4.841681671E0,5.375845945E0
4.352294250E0,-3.900888062E-1,-2.180365906E0,-5.055586853E0,5.519522007E0
4.362233250E0,-3.406915283E-1,-2.021396484E0,-4.850662994E0,5.266027530E0
4.372172250E0,-1.805245972E-1,-1.977687378E0,-4.357738037E0,4.788916088E0
4.382111250E0,-3.397933960E-2,-1.841620331E0,-3.530258789E0,3.981889898E0
4.392050250E0,8.981323242E-2,-1.706152039E0,-2.523602142E0,3.047554588E0
4.401989250E0,1.252894592E-1,-1.671424255E0,-1.522933044E0,2.264659256E0
4.411928250E0,9.265731812E-2,-1.584904175E0,-5.709127808E-1,1.687141969E0
4.421867250E0,7.334747314E-2,-1.417552185E0,2.308200073E-1,1.438093156E0
4.431806250E0,-9.131011963E-2,-1.180594940E0,8.557704163E-1,1.460987665E0
4.441745250E0,-3.076103210E-1,-9.500743103E-1,1.197360077E0,1.559146067E0
4.451685250E0,-4.590953064E-1,-7.973918152E-1,1.230890350E0,1.536780161E0
4.461624250E0,-6.005511475E-1,-6.550378418E-1,1.130898285E0,1.438286197E0
4.471563250E0,-6.987469482E-1,-3.790118408E-1,1.064586182E0,1.328623728E0
4.481502250E0,-7.593708801E-1,-3.128494263E-2,1.066831512E0,1.309867305E0
4.491441250E0,-5.532495117E-1,3.118016052E-1,1.079105988E0,1.252108220E0
4.501380125E0,-2.839595032E-1,7.825726318E-1,1.172062683E0,1.437631335E0
4.511319125E0,2.933898926E-2,1.415157166E0,1.501228180E0,2.063302360E0
4.521258125E0,4.390370178E-1,2.068249054E0,2.016007690E0,2.921419973E0
4.531197125E0,9.824070740E-1,2.709216156E0,2.605631561E0,3.885137278E0
4.541136125E0,1.375789032E0,3.575913849E0,2.930306396E0,4.823551689E0
4.551076125E0,1.480122070E0,4.126918030E0,2.832709351E0,5.219813793E0
4.561015125E0,1.414408722E0,4.191733246E0,2.595452728E0,5.129089052E0
4.570954125E0,1.160536652E0,4.182602234E0,2.952310638E0,5.249489963E0
4.580893125E0,9.110055542E-1,4.383484497E0,4.093687134E0,6.066559305E0
4.590832125E0,5.578898621E-1,4.901407471E0,5.916895752E0,7.703550586E0
4.600771125E0,4.697232056E-1,5.350473633E0,8.254584503E0,9.848165987E0
4.610710125E0,5.613327026E-1,5.687123566E0,1.203811661E1,1.332571650E1
4.620649125E0,7.000941467E-1,6.141728210E0,1.728470627E1,1.835679787E1
4.630588125E0,1.377585297E0,6.704707489E0,2.269041504E1,2.370033288E1
4.640528125E0,2.115999756E0,6.766379242E0,2.631557648E1,2.725382374E1
4.650467125E0,2.157313843E0,6.191125488E0,2.852198822E1,2.926581367E1
4.660406125E0,1.565744019E0,5.316344604E0,3.080010086E1,3.129474856E1
4.670345125E0,9.891430664E-1,4.434827728E0,3.279380493E1,3.310709505E1
4.680284125E0,2.719844055E-1,4.017794952E0,3.337145370E1,3.361354748E1
4.690223125E0,6.182144165E-2,3.990551605E0,3.294618805E1,3.318704011E1
4.700162125E0,7.048841858E-1,3.982169037E0,3.277823730E1,3.302676752E1
4.710101125E0,1.303040314E0,3.985761566E0,3.309722397E1,3.336181116E1
4.720040125E0,1.398691406E0,4.087549896E0,3.338402756E1,3.366240778E1
4.729979125E0,1.158590698E0,4.086053009E0,3.325679214E1,3.352689048E1
4.739919125E0,1.349443817E0,4.195625153E0,3.249083496E1,3.278839163E1
4.749858125E0,2.191143494E0,4.730612640E0,3.108480881E1,3.151896484E1
4.759797125E0,3.313060455E0,5.550008698E0,2.926474365E1,2.997005484E1
4.769736125E0,4.279600525E0,6.204597473E0,2.682855972E1,2.786725008E1
4.779675125E0,5.160818024E0,7.161856842E0,2.375530060E1,2.534246520E1
4.789614125E0,5.596262512E0,8.370742950E0,2.001951920E1,2.240911958E1
4.799553125E0,5.060077515E0,7.974816284E0,1.554532333E1,1.818953426E1
4.809492125E0,3.587290192E0,5.557193756E0,1.046488815E1,1.238002171E1
4.819431125E0,2.187251587E0,3.430566101E0,5.986351318E0,7.238042234E0
4.829371125E0,1.275946655E0,2.409539337E0,3.083138580E0,4.115782209E0
4.839310125E0,5.936654663E-1,1.783391418E0,1.584006042E0,2.458047758E0
4.849249125E0,-2.192939758E-1,1.076561279E0,8.762777710E-1,1.405324435E0
4.859188125E0,-1.082997894E0,-1.014889526E-1,4.502636719E-1,1.177251809E0
4.869127125E0,-1.809886322E0,-1.681154022E0,-1.237925720E-1,2.473315982E0
4.879066125E0,-2.568059692E0,-3.152145081E0,-7.930508423E-1,4.142448410E0
4.889005125E0,-3.373235321E0,-4.099974060E0,-1.465302887E0,5.507777807E0
4.898944125E0,-3.856131134E0,-4.427193604E0,-1.883383484E0,6.165786558E0
4.908883125E0,-3.788022766E0,-4.175117798E0,-2.079775085E0,6.008842610E0
4.918822125E0,-3.378025360E0,-3.708987122E0,-2.286794586E0,5.513353814E0
4.928762125E0,-2.733615417E0,-3.258873138E0,-2.628084869E0,4.999973746E0
4.938701125E0,-2.241588593E0,-2.806962891E0,-3.295097809E0,4.874569689E0
4.948640125E0,-1.722168732E0,-2.240840149E0,-3.921395416E0,4.833691315E0
4.958579125E0,-1.099613342E0,-1.592687988E0,-4.160148926E0,4.588315989E0
4.968518125E0,-6.834786987E-1,-1.082399139E0,-3.988605652E0,4.188998219E0
4.978457125E0,-5.695655823E-1,-9.503736877E-1,-3.704346771E0,3.866497136E0
4.988396125E0,-5.631289673E-1,-1.143023071E0,-3.533252563E0,3.755993830E0
4.998335125E0,-3.354524231E-1,-1.135538635E0,-2.820883942E0,3.059307525E0
5.008274125E0,-4.520599365E-2,-8.113128662E-1,-1.109492798E0,1.375225951E0
5.018213125E0,1.706451416E-2,-5.158273315E-1,7.053332520E-1,8.739931521E-1
5.028153125E0,6.331832886E-2,-5.049000549E-1,1.958227844E0,2.023262110E0
5.038092125E0,1.172062683E-1,-4.740641785E-1,2.811902618E0,2.853992027E0
5.048031125E0,2.052232361E-1,-3.132984924E-1,3.340752869E0,3.361681462E0
5.057970125E0,4.785548401E-1,2.993774414E-4,3.386258240E0,3.419906386E0
5.067909125E0,8.891510010E-1,3.811074829E-1,3.007096710E0,3.158870532E0
5.077848125E0,1.389859772E0,9.228309631E-1,2.620600433E0,3.106585554E0
5.087787125E0,1.938768311E0,1.618733826E0,2.306104431E0,3.420122718E0
5.097726125E0,2.325863342E0,2.122436371E0,1.998045044E0,3.729150095E0
5.107665125E0,2.504292297E0,2.352208557E0,1.896107025E0,3.924230735E0
5.117604125E0,2.439626770E0,2.465373230E0,1.836081848E0,3.924415943E0
5.127544125E0,1.979034576E0,2.383792877E0,1.739981689E0,3.553390299E0
5.137483125E0,1.289867706E0,2.129771118E0,1.702559509E0,3.016354190E0
5.147422125E0,7.334747314E-1,2.065404968E0,1.625769196E0,2.728920728E0
5.157361125E0,4.810995483E-1,2.222727814E0,1.744172974E0,2.866027751E0
5.167300125E0,2.300715637E-1,2.513423309E0,2.846031647E0,3.803961854E0
5.177239125E0,2.739303589E-2,3.004851379E0,5.003644867E0,5.836638086E0
5.187178125E0,-1.892065430E-1,3.569926300E0,8.005951538E0,8.767863647E0
5.197117125E0,-6.638694763E-1,4.447401581E0,1.122485779E1,1.209204432E1
5.207056125E0,-1.204096069E0,5.587131500E0,1.378228958E1,1.492036835E1
5.216996125E0,-1.322799225E0,6.352340240E0,1.583227661E1,1.711031873E1
5.226935125E0,-9.951306152E-1,6.502927094E0,1.815394867E1,1.930917393E1
5.236874125E0,-4.712200928E-1,6.284531250E0,2.114368149E1,2.206292474E1
5.246813125E0,-3.460803223E-1,6.094426575E0,2.446946548E1,2.521936851E1
5.256752125E0,-2.145039368E-1,6.183191986E0,2.802606949E1,2.870084400E1
5.266691125E0,4.650828552E-1,6.417305145E0,3.139765823E1,3.205013338E1
5.276630125E0,1.034049683E0,6.708898773E0,3.334480911E1,3.402873604E1
5.286569125E0,1.390608215E0,6.975045319E0,3.325918716E1,3.401115375E1
5.296508125E0,1.465153198E0,6.989714813E0,3.167368423E1,3.246883213E1
5.306447125E0,1.287622375E0,6.898105316E0,3.001483383E1,3.082421253E1
5.316387125E0,1.276695099E0,6.909182281E0,2.916205719E1,2.999653863E1
5.326326125E0,1.513352966E0,6.937922516E0,2.843606689E1,2.930929727E1
5.336265125E0,1.911674652E0,6.766079865E0,2.711446518E1,2.801122201E1
5.346204125E0,2.355352020E0,6.519841919E0,2.553809326E1,2.646224158E1
5.356143125E0,2.688110046E0,6.172863464E0,2.392729294E1,2.485649867E1
5.366082125E0,2.844983826E0,5.607638855E0,2.214225494E1,2.301779747E1
5.376021125E0,2.802771606E0,4.893923035E0,2.015393967E1,2.092814601E1
5.385960125E0,2.520608368E0,4.055217133E0,1.805305847E1,1.867380981E1
5.395899125E0,2.060165863E0,3.266058197E0,1.581042206E1,1.627516099E1
5.405838125E0,1.583556976E0,2.583777008E0,1.335088669E1,1.369049786E1
5.415778125E0,1.311572571E0,1.987866211E0,1.088581284E1,1.114328299E1
5.425717125E0,1.309027863E0,1.471589813E0,8.537047119E0,8.761295797E0
5.435656125E0,1.339414673E0,1.012494507E0,6.199208679E0,6.422566858E0
5.445595125E0,1.250649261E0,5.626799011E-1,3.963008881E0,4.193586965E0
5.455534125E0,1.059347076E0,1.457968140E-1,2.136806488E0,2.389438199E0
5.465473125E0,8.174501038E-1,-1.914518738E-1,8.610095215E-1,1.202587164E0
5.475412125E0,5.122348022E-1,-4.999603271E-1,-4.311035156E-2,7.170797193E-1
5.485351125E0,2.686912537E-1,-8.093669128E-1,-8.590635681E-1,1.210479245E0
5.495290125E0,1.624122620E-1,-1.099912720E0,-1.376986542E0,1.769824192E0
5.505230292E0,2.585124207E-1,-1.219364319E0,-1.521735535E0,1.967068136E0
5.515169292E0,3.653901672E-1,-1.136885834E0,-1.470841370E0,1.894569531E0
5.525108292E0,2.456391907E-1,-1.053060150E0,-1.512305145E0,1.859123757E0
5.535047292E0,4.340972900E-3,-1.034349060E0,-1.753603363E0,2.035932606E0
5.544986292E0,-1.321751404E-1,-1.016386414E0,-2.021995239E0,2.266931044E0
5.554925292E0,-1.562750244E-1,-8.728349304E-1,-2.080972595E0,2.262014509E0
5.564864292E0,-2.110610962E-2,-6.541397095E-1,-1.875449982E0,1.986367756E0
5.574803292E0,1.496887207E-4,-5.138813782E-1,-1.602717133E0,1.683085351E0
5.584742292E0,-2.727328491E-1,-6.307882690E-1,-1.433718567E0,1.589913827E0
5.594681292E0,-5.441184998E-1,-8.180488586E-1,-1.313219147E0,1.640065061E0
5.604621292E0,-6.484515381E-1,-9.204359436E-1,-9.575587463E-1,1.478042786E0
5.614560292E0,-6.436614990E-1,-8.249345398E-1,-1.689985657E-1,1.059895106E0
5.624499292E0,-5.363346863E-1,-6.590794373E-1,7.322772217E-1,1.121726584E0
5.634438292E0,-4.101470947E-1,-5.439688110E-1,1.448986816E0,1.601151305E0
5.644377292E0,-3.147953796E-1,-3.625460815E-1,1.850601654E0,1.911874022E0
5.654316292E0,-1.354682922E-1,-1.516346741E-1,1.964365082E0,1.974860731E0
5.664255292E0,3.562591553E-2,1.196012878E-1,1.936223602E0,1.940241096E0
5.674194292E0,4.790039063E-2,3.279679871E-1,1.997296600E0,2.024611360E0
5.684133292E0,-6.197113037E-2,4.285588074E-1,2.157014465E0,2.200048744E0
5.694072292E0,-2.757266235E-1,4.116439819E-1,2.350112915E0,2.401771565E0
5.704012292E0,-5.495072937E-1,3.869453430E-1,2.437381439E0,2.528341995E0
5.713951292E0,-8.783734131E-1,3.091072083E-1,2.508333893E0,2.675598258E0
5.723890292E0,-1.120719452E0,4.014651489E-1,2.649939423E0,2.905058571E0
5.733829292E0,-1.244811401E0,8.857081604E-1,3.014281769E0,3.379338538E0
5.743768292E0,-1.082698517E0,1.531016235E0,3.465892639E0,3.940641899E0
5.753707292E0,-5.897735596E-1,2.134261780E0,4.041595459E0,4.608405370E0
5.763646292E0,-1.104702759E-1,2.674937439E0,5.064568176E0,5.728642492E0
5.773585292E0,2.811154175E-1,3.205134888E0,6.923552399E0,7.634624637E0
5.783524292E0,2.427951050E-1,3.738026733E0,9.641001434E0,1.034314759E1
5.793463292E0,-4.929249573E-1,4.142335968E0,1.247041763E1,1.314964784E1
5.803403292E0,-1.148262177E0,4.210893402E0,1.498908005E1,1.561161907E1
5.813342292E0,-1.267414398E0,4.273762665E0,1.718935455E1,1.775796431E1
5.823281292E0,-8.797206116E-1,4.764741669E0,1.934831497E1,1.994577559E1
5.833220292E0,2.639012146E-1,5.483546906E0,2.200828354E1,2.268266904E1
5.843159292E0,1.574276276E0,5.957910461E0,2.518018753E1,2.592328851E1
5.853098292E0,2.205363922E0,6.093977509E0,2.850103180E1,2.922856489E1
5.863037292E0,1.741927643E0,5.964945831E0,3.103975250E1,3.165566499E1
5.872976292E0,7.198530579E-1,5.257666626E0,3.179313583E1,3.223297586E1
5.882915292E0,-1.832189941E-1,4.527934113E0,3.123689255E1,3.156389096E1
5.892855292E0,-4.445755005E-1,4.454736328E0,3.045521805E1,3.078250525E1
5.902794292E0,1.055305481E-1,4.966971130E0,2.955064911E1,2.996536003E1
5.912733292E0,8.289761353E-1,5.577102356E0,2.833532639E1,2.889086350E1
5.922672292E0,1.319356384E0,5.819448395E0,2.684382797E1,2.749905055E1
5.932611292E0,1.503922577E0,5.758076019E0,2.542717392E1,2.611433315E1
5.942550292E0,1.440304871E0,5.488486633E0,2.413371368E1,2.479181518E1
5.952489292E0,1.238225098E0,5.082979889E0,2.278441956E1,2.337733219E1
5.962428292E0,9.653425598E-1,4.596042480E0,2.120325760E1,2.171712747E1
5.972367292E0,7.348219299E-1,4.064198456E0,1.952045700E1,1.995259166E1
5.982306292E0,4.465214539E-1,3.511098633E0,1.768751862E1,1.803816814E1
5.992246292E0,1.335223389E-1,2.997516632E0,1.556223816E1,1.584885455E1
6.002185292E0,-1.592687988E-1,2.583327942E0,1.321526871E1,1.346633866E1
6.012124292E0,-2.703378296E-1,2.231559448E0,1.082414108E1,1.105508798E1
6.022063292E0,5.852828979E-2,1.930086365E0,8.499924316E0,8.716500004E0
6.032002292E0,3.969744873E-1,1.645079041E0,6.314768372E0,6.537596912E0
6.041941292E0,5.637277222E-1,1.254241791E0,4.480183411E0,4.686465065E0
6.051880292E0,5.255570984E-1,8.199948120E-1,3.094963989E0,3.244596100E0
6.061819292E0,2.983296204E-1,3.770658875E-1,2.047292633E0,2.102994620E0
6.071758292E0,9.131011963E-2,-2.903961182E-2,1.109792175E0,1.113920782E0
6.081697292E0,-5.927673340E-2,-3.942800903E-1,2.176473999E-1,4.542476323E-1
6.091637292E0,-3.035687256E-1,-7.948471069E-1,-5.502557373E-1,1.013270581E0
6.101576292E0,-5.725593567E-1,-1.158441010E0,-1.087488556E0,1.688917153E0
6.111515292E0,-8.716374207E-1,-1.486259308E0,-1.546883240E0,2.315505621E0
6.121454292E0,-1.220711517E0,-1.681004333E0,-2.037413177E0,2.909804913E0
6.131393292E0,-1.520987091E0,-1.719025269E0,-2.605481873E0,3.472317006E0
6.141332292E0,-1.587149506E0,-1.528770905E0,-3.097209320E0,3.801169505E0
6.151271292E0,-1.465751953E0,-1.218765564E0,-3.364852753E0,3.867305565E0
6.161210292E0,-1.223705292E0,-1.012344818E0,-3.446732483E0,3.795031157E0
6.171149292E0,-9.433383179E-1,-9.189390564E-1,-3.326831818E0,3.578008680E0
6.181089292E0,-5.340893555E-1,-7.750881958E-1,-2.955154724E0,3.101443631E0
6.191028292E0,-1.173559570E-1,-5.532495117E-1,-2.115850067E0,2.190132176E0
6.200967292E0,1.896556091E-1,-3.546125793E-1,-8.300239563E-1,9.223118234E-1
6.210906292E0,4.164340210E-1,-2.619552612E-1,6.200106812E-1,7.914866376E-1
6.220845292E0,4.141886902E-1,-2.537223816E-1,1.911075897E0,1.971836302E0
6.230784292E0,3.435356140E-1,-3.152444458E-1,2.949915619E0,2.986536110E0
6.240723292E0,4.659809875E-1,-2.689906311E-1,3.723207550E0,3.761883664E0
6.250662292E0,7.616162109E-1,-8.906478882E-2,4.221820679E0,4.290892871E0
6.260601292E0,1.314566345E0,2.665956116E-1,4.391268311E0,4.591556955E0
6.270540292E0,1.969753876E0,7.439529419E-1,4.110751648E0,4.618622676E0
6.280480292E0,2.268532562E0,1.160087585E0,3.486399994E0,4.318220479E0
6.290419292E0,2.244732056E0,1.385668488E0,2.748135223E0,3.809349861E0
6.300358292E0,2.019749908E0,1.469943237E0,2.270029449E0,3.375375018E0
6.310297292E0,1.778451691E0,1.525028687E0,2.156415710E0,3.184137501E0
6.320236292E0,1.651216278E0,1.687291260E0,2.365979919E0,3.342353657E0
6.330175292E0,1.586251373E0,1.957629089E0,2.891986084E0,3.835634052E0
6.340114292E0,1.163081360E0,2.202819214E0,3.808979187E0,4.551207882E0
6.350053292E0,5.397775269E-1,2.343077545E0,5.133874054E0,5.669041803E0
6.359992292E0,1.496887207E-3,2.517315216E0,6.928941193E0,7.372048846E0
6.369931292E0,-4.070036316E-1,3.112028503E0,8.861871643E0,9.401230897E0
6.379871292E0,-6.203100586E-1,3.999682617E0,1.037402710E1,1.113564923E1
6.389810292E0,-7.560777283E-1,5.112468567E0,1.139310791E1,1.251047146E1
6.399749292E0,-4.971162415E-1,6.108197937E0,1.253852600E1,1.395606825E1
6.409688292E0,9.864486694E-2,6.669979706E0,1.449959793E1,1.596047306E1
6.419627292E0,8.171507263E-1,6.873556366E0,1.708606934E1,1.843494719E1
6.429566292E0,1.368753662E0,6.919061737E0,2.051962921E1,2.169797421E1
6.439505292E0,2.105970612E0,6.677314453E0,2.478710495E1,2.575698376E1
6.449444292E0,2.367027740E0,6.184838562E0,2.840463226E1,2.916638789E1
6.459383292E0,2.140698395E0,5.711373138E0,3.084171432E1,3.143904762E1
6.469323292E0,2.159110107E0,5.485043793E0,3.187097397E1,3.241151714E1
6.479262292E0,2.480940857E0,5.829776917E0,3.110531616E1,3.174400825E1
6.489201292E0,3.147355042E0,6.777456207E0,2.920127563E1,3.014223374E1
6.499140292E0,3.808380432E0,7.889643402E0,2.704471024E1,2.842827090E1
6.509078500E0,4.498445435E0,8.592282257E0,2.541310318E1,2.720090327E1
6.519017500E0,4.878505096E0,8.754993896E0,2.429971848E1,2.628547219E1
6.528956500E0,4.694387970E0,8.436306610E0,2.367057678E1,2.556373902E1
6.538895500E0,4.496200104E0,7.763455811E0,2.331521576E1,2.498172026E1
6.548834500E0,4.324507141E0,6.931785278E0,2.289369232E1,2.430786205E1
6.558773500E0,4.018244019E0,6.305787048E0,2.202879089E1,2.326320837E1
6.568713500E0,3.528013458E0,5.692811737E0,2.066557571E1,2.172374286E1
6.578652500E0,2.794389038E0,4.909191284E0,1.868130203E1,1.951665481E1
6.588591500E0,1.853595428E0,3.898343353E0,1.624407028E1,1.680781712E1
6.598530500E0,7.421566772E-1,2.957250366E0,1.372900040E1,1.406348386E1
6.608469500E0,-2.478845215E-1,1.951791229E0,1.140178986E1,1.157029592E1
6.618408500E0,-8.515791321E-1,8.903485107E-1,9.070238342E0,9.153531071E0
6.628347500E0,-1.244062958E0,-8.562194824E-2,6.848857727E0,6.961456452E0
6.638286500E0,-1.703457642E0,-9.891430664E-1,4.726121979E0,5.120195397E0
6.648225500E0,-2.025138702E0,-1.803000641E0,2.708617401E0,3.832571761E0
6.658165500E0,-2.183958435E0,-2.332898712E0,1.233584747E0,3.425466709E0
6.668104500E0,-1.972148895E0,-2.511177979E0,4.634362793E-1,3.226477846E0
6.678043500E0,-1.571581879E0,-2.506537628E0,-1.975891113E-2,2.958545402E0
6.687982500E0,-1.344204712E0,-2.468067627E0,-9.105564880E-1,2.954210087E0
6.697921500E0,-1.120420074E0,-2.458487549E0,-1.935175781E0,3.323312726E0
6.707860500E0,-7.529342651E-1,-2.325264587E0,-2.728825378E0,3.663366396E0
6.717799500E0,-4.354444885E-1,-2.009421387E0,-3.222199402E0,3.822297110E0
6.727738500E0,-2.020797729E-1,-1.583407288E0,-3.507057037E0,3.853240706E0
6.737677500E0,4.326004028E-2,-1.151405640E0,-3.691024475E0,3.866686961E0
6.747616500E0,1.664538574E-1,-9.795629883E-1,-3.917802887E0,4.041834979E0
6.757556500E0,2.279759216E-1,-1.019679565E0,-4.043391724E0,4.176210731E0
6.767495500E0,3.989204407E-1,-9.403445435E-1,-3.464844818E0,3.612275597E0
6.777434500E0,5.029541016E-1,-8.186476135E-1,-2.180964661E0,2.383223362E0
6.787373500E0,4.439767456E-1,-8.671467590E-1,-6.283932495E-1,1.159282937E0
6.797312500E0,2.387535095E-1,-1.049018555E0,8.297245789E-1,1.358633889E0
6.807251500E0,3.038681030E-2,-1.195414124E0,1.930984497E0,2.271263836E0
6.817190500E0,-1.691482544E-1,-1.257834320E0,2.783761139E0,3.059425500E0
6.827129500E0,-2.294728088E-1,-1.180445251E0,3.419638824E0,3.624919096E0
6.837068500E0,-1.242416382E-1,-9.589059448E-1,3.852089539E0,3.971590413E0
6.847007500E0,1.023870850E-1,-6.303392029E-1,3.806584167E0,3.859778964E0
6.856947500E0,4.264631653E-1,-3.248245239E-1,3.353326721E0,3.395906639E0
6.866886500E0,6.944059753E-1,1.122665405E-2,2.877017212E0,2.959654327E0
6.876825500E0,9.677375793E-1,3.740721130E-1,2.553539886E0,2.756267752E0
6.886764500E0,1.174757080E0,6.695576477E-1,2.357747040E0,2.717964817E0
6.896703500E0,1.306333466E0,9.392967224E-1,2.197580109E0,2.723626955E0
6.906642500E0,1.334624634E0,1.203048248E0,2.074835358E0,2.744720343E0
6.916581500E0,1.284029846E0,1.514550476E0,1.898502045E0,2.747163229E0
6.926520500E0,1.255139923E0,1.813628540E0,1.745071106E0,2.812454066E0
6.936459500E0,1.100212097E0,2.124981079E0,1.798659668E0,2.993524319E0
6.946398500E0,1.054557037E0,2.448757782E0,2.399510193E0,3.586942205E0
6.956338500E0,9.717791748E-1,2.771786041E0,3.743565216E0,4.758301498E0
6.966277500E0,7.773335266E-1,3.235970764E0,5.915698242E0,6.787579826E0
6.976216500E0,3.311114502E-1,3.829636230E0,8.931027832E0,9.723117123E0
6.986155500E0,-5.538482666E-2,4.517755280E0,1.225711121E1,1.306330568E1
6.996094500E0,-4.981640625E-1,5.080285492E0,1.536809189E1,1.619369372E1
7.006033500E0,-7.755372620E-1,5.418731689E0,1.811053894E1,1.891971807E1
7.015972500E0,1.139131165E-1,5.761369171E0,2.029180298E1,2.109416078E1
7.025911500E0,1.783092041E0,6.421795807E0,2.235690857E1,2.332917143E1
7.035850500E0,3.721261597E0,7.276219025E0,2.540397217E1,2.668619405E1
7.045790500E0,5.383255463E0,7.693102112E0,2.941802490E1,3.088014651E1
7.055729500E0,5.696254578E0,7.281308441E0,3.303016342E1,3.429951114E1
7.065668500E0,4.420307922E0,6.199508057E0,3.575674347E1,3.655841525E1
7.075607500E0,2.862497406E0,4.990322571E0,3.734329422E1,3.778384356E1
7.085546500E0,2.188299408E0,4.328848114E0,3.703568390E1,3.735196731E1
7.095485500E0,2.547402649E0,4.681365051E0,3.480816605E1,3.521381636E1
7.105424500E0,3.352877655E0,5.846392365E0,3.193623825E1,3.263962938E1
7.115363500E0,4.318818970E0,6.987619171E0,2.949945557E1,3.062183694E1
7.125302500E0,4.867877197E0,7.509284363E0,2.717329285E1,2.860897454E1
7.135241500E0,4.709955597E0,7.542664948E0,2.499322632E1,2.652803871E1
7.145181500E0,4.099375305E0,7.032525787E0,2.296075287E1,2.436098252E1
7.155120500E0,3.244203644E0,6.244863739E0,2.091705276E1,2.206912497E1
7.165059500E0,2.612666931E0,5.580844574E0,1.857277771E1,1.956833990E1
7.174998500E0,2.289339294E0,5.032983856E0,1.584470078E1,1.678173244E1
7.184937500E0,2.051783295E0,4.408332825E0,1.294223648E1,1.382550896E1
7.194876500E0,1.730401611E0,3.765569458E0,1.007225464E1,1.089146990E1
7.204815500E0,1.312620392E0,2.963986359E0,7.488178253E0,8.159718192E0
7.214754500E0,1.020577698E0,2.017953644E0,5.070855103E0,5.552232634E0
7.224693500E0,8.521778870E-1,1.120120697E0,2.893333282E0,3.217492037E0
7.234633500E0,5.228627014E-1,3.439846802E-1,9.093589783E-1,1.103922378E0
7.244572500E0,3.098556519E-2,-3.376977539E-1,-6.333329773E-1,7.184083368E-1
7.254511500E0,-3.664379883E-1,-9.256750488E-1,-1.513053589E0,1.811210164E0
7.264450500E0,-6.489006042E-1,-1.602866821E0,-1.931732941E0,2.592652348E0
7.274389500E0,-7.212002563E-1,-2.299817505E0,-2.353705444E0,3.368860295E0
7.284328500E0,-8.017327881E-1,-2.721939697E0,-2.872825928E0,4.037927685E0
7.294267500E0,-9.750723267E-1,-2.949765930E0,-3.417992249E0,4.618934520E0
7.304206500E0,-1.050365753E0,-3.023562469E0,-3.916904755E0,5.058393132E0
7.314145500E0,-1.057101746E0,-2.985691223E0,-4.205504608E0,5.264796785E0
7.324084500E0,-9.915380859E-1,-2.760709076E0,-4.163442078E0,5.093025850E0
7.334024500E0,-7.912545776E-1,-2.509381714E0,-3.930376740E0,4.729792988E0
7.343963500E0,-5.162763977E-1,-2.274520111E0,-3.545527039E0,4.243906813E0
7.353902500E0,-2.712359619E-1,-2.011217651E0,-3.001258850E0,3.622998768E0
7.363841500E0,-4.520599365E-2,-1.670825500E0,-2.412682800E0,2.935087687E0
7.373780500E0,2.736309814E-1,-1.281634827E0,-1.649569702E0,2.106784741E0
7.383719500E0,6.809339905E-1,-8.357121277E-1,-5.430706787E-1,1.207067364E0
7.393658500E0,1.028660889E0,-4.676275635E-1,9.145980835E-1,1.453722262E0
7.403597500E0,1.168320465E0,-2.860551453E-1,2.143542480E0,2.457961477E0
7.413536500E0,1.142124939E0,-2.170486450E-1,2.805016937E0,3.036392516E0
7.423475500E0,1.208287354E0,3.442840576E-3,3.110681305E0,3.337110781E0
7.433415500E0,1.331481171E0,3.486250305E-1,3.307222595E0,3.582192459E0
7.443354500E0,1.501826935E0,7.824229431E-1,3.328478394E0,3.734493034E0
7.453293500E0,1.608554993E0,1.183139648E0,3.030298462E0,3.629046343E0
7.463232500E0,1.635349274E0,1.580563202E0,2.598296814E0,3.453070172E0
7.473171500E0,1.626218262E0,1.905088348E0,2.121837616E0,3.282703508E0
7.483110500E0,1.435215454E0,2.014660492E0,1.824406128E0,3.073622946E0
7.493049500E0,1.175355835E0,2.010918274E0,1.654808807E0,2.857209448E0
7.502988917E0,1.049317932E0,2.020648041E0,1.628463593E0,2.799282104E0
7.512927917E0,8.529263306E-1,2.132914581E0,1.736089783E0,2.879377653E0
7.522867917E0,6.614744568E-1,2.375260620E0,1.939217377E0,3.136873524E0
7.532806917E0,7.369175720E-1,2.795436859E0,2.499801636E0,3.821848108E0
7.542745917E0,8.340655518E-1,3.240760803E0,3.530707855E0,4.864575407E0
7.552684917E0,8.767268372E-1,3.678151245E0,5.122348022E0,6.366780646E0
7.562623917E0,9.336085510E-1,4.345912628E0,7.021448822E0,8.310194045E0
7.572562917E0,5.469625854E-1,5.087769928E0,9.347761230E0,1.065669794E1
7.582501917E0,2.935395813E-1,5.871240692E0,1.215996323E1,1.350638140E1
7.592440917E0,3.242257690E-1,6.620881805E0,1.507904297E1,1.647175568E1
7.602379917E0,8.982820129E-1,7.065457306E0,1.786639664E1,1.923371327E1
7.612318917E0,2.240391083E0,7.357500000E0,2.108200974E1,2.244110721E1
7.622258917E0,3.622317352E0,7.768395538E0,2.449551132E1,2.595186366E1
7.632197917E0,4.703219604E0,7.729925537E0,2.785452621E1,2.928731217E1
7.642136917E0,4.969216461E0,7.324568481E0,3.084470810E1,3.208953776E1
7.652075917E0,4.179608459E0,6.833439789E0,3.304917389E1,3.400607183E1
7.662014917E0,2.907853088E0,6.435267792E0,3.370406204E1,3.443591264E1
7.671953917E0,1.859582977E0,6.240073700E0,3.285173447E1,3.349079017E1
7.681892917E0,1.221609650E0,6.281387787E0,3.121144547E1,3.186067310E1
7.691831917E0,9.023236084E-1,6.583908691E0,2.915023178E1,2.989812794E1
7.701770917E0,8.581654358E-1,6.984326019E0,2.736205032E1,2.825241681E1
7.711710917E0,1.236578522E0,7.115004272E0,2.561443451E1,2.661299809E1
7.721649917E0,1.795965271E0,7.160509644E0,2.394839905E1,2.506041114E1
7.731588917E0,2.242486725E0,7.074139252E0,2.258623169E1,2.377414677E1
7.741527917E0,2.431543579E0,6.641538849E0,2.098740646E1,2.214709174E1
7.751466917E0,2.391427002E0,6.064788208E0,1.886796387E1,1.996248080E1
7.761405917E0,2.149380341E0,5.369933167E0,1.649928955E1,1.748378030E1
7.771344917E0,1.841021576E0,4.665797424E0,1.414483566E1,1.500784468E1
7.781283917E0,1.562001801E0,3.973187714E0,1.175101364E1,1.250249542E1
7.791222917E0,1.254690857E0,3.178939362E0,9.384135590E0,9.987086931E0
7.801161917E0,1.110989685E0,2.371817780E0,7.452702026E0,7.899530692E0
7.811101917E0,1.080153809E0,1.603166199E0,6.058650970E0,6.359569615E0
7.821040917E0,8.524772644E-1,9.512718201E-1,4.814288635E0,4.980864446E0
7.830979917E0,5.899232483E-1,4.089495850E-1,3.464695129E0,3.538270982E0
7.840918917E0,3.538641357E-1,3.023712158E-2,2.184407501E0,2.213090654E0
7.850857917E0,2.023791504E-1,-2.200424194E-1,1.219064941E0,1.255187364E0
7.860796917E0,2.284249878E-1,-3.150947571E-1,5.840853882E-1,7.018678093E-1
7.870735917E0,3.884422302E-1,-3.171903992E-1,1.052311707E-1,5.124165443E-1
7.880674917E0,4.864883423E-1,-3.318598938E-1,-3.510200500E-1,6.855778379E-1
7.890613917E0,5.209167480E-1,-3.622467041E-1,-7.212002563E-1,9.605762556E-1
7.900553917E0,5.424719238E-1,-3.390449524E-1,-1.135987701E0,1.303723639E0
7.910492917E0,5.227130127E-1,-3.598516846E-1,-1.579216003E0,1.701953382E0
7.920431917E0,3.592529297E-1,-3.372486877E-1,-1.740281067E0,1.808694982E0
7.930370917E0,1.710942078E-1,-3.727249146E-1,-1.786085815E0,1.832566405E0
7.940309917E0,2.050735474E-2,-4.339476013E-1,-1.712888031E0,1.767120958E0
7.950248917E0,-2.085163879E-1,-4.092489624E-1,-1.325643311E0,1.402959010E0
7.960187917E0,-4.724176025E-1,-3.686833191E-1,-7.217990112E-1,9.381362340E-1
7.970126917E0,-6.352789307E-1,-4.369413757E-1,-2.653981018E-1,8.154343861E-1
7.980065917E0,-7.191046143E-1,-5.358856201E-1,-6.840774536E-2,8.994245181E-1
7.990004917E0,-7.617658997E-1,-5.668711853E-1,1.676513672E-2,9.496901055E-1
7.999944917E0,-7.372169495E-1,-5.336402893E-1,3.085084534E-1,9.609569474E-1
8.009883917E0,-7.000941467E-1,-4.572990417E-1,7.619155884E-1,1.131269018E0
8.019822917E0,-6.261479187E-1,-3.698808289E-1,9.806108093E-1,1.220848313E0
8.029761917E0,-5.984555054E-1,-2.661465454E-1,1.082249451E0,1.265008636E0
8.039700917E0,-6.956034851E-1,-1.844165039E-1,1.293909302E0,1.480565749E0
8.049639917E0,-7.460485840E-1,-1.338217163E-1,1.577868805E0,1.750476137E0
8.059578917E0,-8.698411560E-1,-1.685494995E-1,1.887874146E0,2.085449918E0
8.069517917E0,-9.386979675E-1,-2.198927307E-1,2.281106415E0,2.476479994E0
8.079456917E0,-8.882528687E-1,-1.809736633E-1,2.649340668E0,2.800134032E0
8.089396917E0,-5.590873718E-1,1.496887207E-2,2.982847137E0,3.034827804E0
8.099335917E0,-4.610412598E-2,3.457809448E-1,3.311413879E0,3.329737517E0
8.109274917E0,5.153782654E-1,8.119116211E-1,3.503614197E0,3.633197996E0
8.119213917E0,9.029223633E-1,1.257684631E0,3.525319061E0,3.850313482E0
8.129152917E0,1.223106537E0,1.640738068E0,3.405119019E0,3.972763086E0
8.139091917E0,1.441951447E0,1.959874420E0,3.639381866E0,4.377834178E0
8.149030917E0,1.356778564E0,2.251318359E0,4.677622833E0,5.365578981E0
8.158969917E0,1.002764740E0,2.434237976E0,6.284830627E0,6.813967102E0
8.168908917E0,7.268884277E-1,2.831212463E0,8.374934235E0,8.870380727E0
8.178847917E0,4.619393921E-1,3.639381866E0,1.045216461E1,1.107728457E1
8.188787917E0,7.918533325E-1,4.792583771E0,1.280362473E1,1.369411176E1
8.198726917E0,1.795516205E0,5.867498474E0,1.586416031E1,1.700949732E1
8.208665917E0,3.452570343E0,6.524781647E0,1.944935486E1,2.080313491E1
8.218604917E0,5.850433960E0,7.350464630E0,2.325040054E1,2.507664318E1
8.228543917E0,7.049739990E0,7.917635193E0,2.808819031E1,3.002222869E1
8.238482917E0,6.959328003E0,7.316335602E0,3.369283539E1,3.517340145E1
8.248421917E0,6.058351593E0,5.548511810E0,3.762695435E1,3.851333926E1
8.258360917E0,4.305646362E0,4.119882660E0,3.911725525E1,3.956856937E1
8.268299917E0,2.585573273E0,3.717369690E0,3.861295395E1,3.887755444E1
8.278239917E0,2.039209442E0,4.495152283E0,3.620880341E1,3.654370279E1
8.288178917E0,2.066752167E0,5.731880493E0,3.275323929E1,3.331517075E1
8.298117917E0,2.442919922E0,6.572532349E0,3.012829788E1,3.093348303E1
8.308056917E0,3.245850220E0,7.309898987E0,2.831841156E1,2.942622300E1
8.317995917E0,3.701802063E0,7.479496307E0,2.677571960E1,2.804612921E1
8.327934917E0,3.581751709E0,7.098388824E0,2.603041946E1,2.721761942E1
8.337873917E0,3.491639099E0,6.131699066E0,2.589390335E1,2.683809807E1
8.347812917E0,3.273842010E0,5.001549225E0,2.539663742E1,2.609066363E1
8.357751917E0,2.639461212E0,4.097429352E0,2.403192535E1,2.452119734E1
8.367691917E0,2.088007965E0,3.154240723E0,2.144575333E1,2.177680756E1
8.377630917E0,1.801204376E0,2.350861359E0,1.813808167E1,1.837827230E1
8.387569917E0,1.426982574E0,1.808389435E0,1.473386078E1,1.491285369E1
8.397508917E0,1.149759064E0,1.350341949E0,1.110959747E1,1.125026779E1
8.407447917E0,1.083596649E0,8.411009216E-1,7.611671448E0,7.734285661E0
8.417386917E0,9.048683167E-1,3.510200500E-1,4.719685364E0,4.818447019E0
8.427325917E0,4.549040222E-1,-1.101708984E-1,2.263443146E0,2.311330822E0
8.437264917E0,7.798782349E-2,-7.426057434E-1,-1.649569702E-1,7.646935287E-1
8.447203917E0,-2.832110596E-1,-1.372346191E0,-2.149979095E0,2.566311104E0
8.457142917E0,-7.032376099E-1,-1.943708038E0,-3.612737274E0,4.162260766E0
8.467082917E0,-6.688092041E-1,-2.392474823E0,-4.709656219E0,5.324669308E0
8.477021917E0,-4.317022705E-1,-2.557731171E0,-5.385500793E0,5.977622804E0
8.486960917E0,-3.697311401E-1,-2.489772491E0,-5.770949249E0,6.295992647E0
8.496899917E0,-3.191363525E-1,-2.355052643E0,-6.057752838E0,6.507264434E0
8.506839042E0,-4.962181091E-1,-2.305954742E0,-6.289321289E0,6.717084335E0
8.516778042E0,-9.327104187E-1,-2.323767700E0,-6.454877014E0,6.923531058E0
8.526717042E0,-1.097218323E0,-2.280956726E0,-6.362668762E0,6.847642325E0
8.536656042E0,-1.059047699E0,-2.188000031E0,-6.035000153E0,6.506162694E0
8.546595042E0,-8.961863708E-1,-2.071093140E0,-5.322332153E0,5.780985760E0
8.556535042E0,-6.640191650E-1,-1.919458466E0,-4.172423401E0,4.640512826E0
8.566474042E0,-4.406835938E-1,-1.773961029E0,-2.588716736E0,3.169005223E0
8.576413042E0,-4.128414917E-1,-1.720821533E0,-9.116043091E-1,1.990649960E0
8.586352042E0,-6.107299805E-1,-1.837129669E0,5.017565918E-1,1.999949051E0
8.596291042E0,-8.183482361E-1,-1.905836792E0,1.614243164E0,2.628248220E0
8.606230042E0,-8.930429077E-1,-1.903142395E0,2.377655640E0,3.173755339E0
8.616169042E0,-8.500822449E-1,-1.757046204E0,2.704575806E0,3.335353276E0
8.626108042E0,-7.291337585E-1,-1.497935028E0,2.401755524E0,2.922990760E0
8.636047042E0,-5.399272156E-1,-1.134790192E0,1.846709747E0,2.233742838E0
8.645987042E0,-4.164340210E-1,-7.054829407E-1,1.403930511E0,1.625467426E0
8.655926042E0,-3.733236694E-1,-3.555107117E-1,1.077160034E0,1.194165888E0
8.665865042E0,-1.540296936E-1,-1.392105103E-2,8.842112732E-1,8.976349580E-1
8.675804042E0,2.395019531E-3,3.956272888E-1,7.864645386E-1,8.803710344E-1
8.685743042E0,1.612147522E-1,7.316784668E-1,7.105723572E-1,1.032597041E0
8.695682042E0,3.439846802E-1,9.237290955E-1,7.002438354E-1,1.209108073E0
8.705621042E0,4.306544495E-1,1.144669647E0,9.598040771E-1,1.554656143E0
8.715560042E0,4.176315308E-1,1.385518799E0,1.408570862E0,2.019443069E0
8.725499042E0,4.026626587E-1,1.637893982E0,1.801204376E0,2.467624590E0
8.735438042E0,4.920268250E-1,1.995350647E0,1.969304810E0,2.846344328E0
8.745378042E0,6.246510315E-1,2.488574982E0,2.194286957E0,3.376105685E0
8.755317042E0,7.768844604E-1,2.893033905E0,2.815794525E0,4.111191244E0
8.765256042E0,8.755293274E-1,3.359913025E0,4.142785034E0,5.405389438E0
8.775195042E0,9.027726746E-1,4.161346436E0,5.873935089E0,7.254992494E0
8.785134042E0,7.770341492E-1,5.207820282E0,7.955207062E0,9.539942010E0
8.795073042E0,6.744973755E-1,6.347400513E0,1.050051407E1,1.228841876E1
8.805012042E0,9.274713135E-1,7.658823395E0,1.352407654E1,1.556979207E1
8.814951042E0,1.906585236E0,8.537945251E0,1.690479630E1,1.903427735E1
8.824890042E0,3.520229645E0,8.581953735E0,2.084625000E1,2.281683777E1
8.834830042E0,5.273982697E0,8.020022278E0,2.582339996E1,2.754965765E1
8.844769042E0,6.442303162E0,7.642657013E0,3.265130127E1,3.414704893E1
8.854708042E0,6.402935028E0,7.540569305E0,3.930062393E1,4.052649508E1
8.864647042E0,5.816454620E0,7.267836456E0,4.231774979E1,4.332948809E1
8.874586042E0,4.825515289E0,7.131170654E0,4.106260986E1,4.195565661E1
8.884525042E0,3.307222595E0,7.327861633E0,3.773368240E1,3.858064366E1
8.894464042E0,2.633024597E0,7.546856232E0,3.511712357E1,3.601527766E1
8.904403042E0,2.062411194E0,7.764353943E0,3.219669662E1,3.318382144E1
8.914342042E0,1.630409546E0,7.869285736E0,2.873918655E1,2.984166110E1
8.924282042E0,1.224902802E0,7.896379395E0,2.613325562E1,2.732764614E1
8.934221042E0,1.243913269E0,7.619754639E0,2.491074783E1,2.607974959E1
8.944160042E0,1.236728210E0,7.219337311E0,2.450090012E1,2.557229818E1
8.954099042E0,1.353784790E0,6.026916962E0,2.363046021E1,2.442447770E1
8.964038042E0,1.486708374E0,4.520000610E0,2.229448837E1,2.279659885E1
8.973977042E0,1.108894043E0,2.992726593E0,2.009541138E1,2.034727542E1
8.983916042E0,8.135581970E-1,1.436562653E0,1.759291534E1,1.767020825E1
8.993855042E0,6.535409546E-1,-9.774673462E-2,1.461455887E1,1.462949080E1
9.003794042E0,3.908372498E-1,-1.178199921E0,1.109537704E1,1.116460033E1
9.013734042E0,5.575904846E-1,-1.224004669E0,8.893156586E0,8.994294227E0
9.023673042E0,5.170248413E-1,-9.907896423E-1,6.244564362E0,6.343781433E0
9.033612042E0,1.034349060E-1,-1.023721161E0,3.484304352E0,3.633053896E0
9.043551042E0,-1.603166199E-1,-8.408015442E-1,1.143023071E0,1.427988234E0
9.053490042E0,-2.848576355E-1,-7.444020081E-1,-4.695735168E-1,9.250824341E-1
9.063429042E0,-1.010398865E-1,-7.075785828E-1,-1.536105652E0,1.694254138E0
9.073368042E0,1.496887207E-1,-3.143463135E-1,-2.438279572E0,2.463011893E0
9.083307042E0,6.614744568E-1,-3.194357300E-1,-3.548371124E0,3.623606667E0
9.093246042E0,6.063890076E-1,-5.736071777E-1,-4.983885956E0,5.053301104E0
9.103185042E0,2.579136658E-1,-5.851332092E-1,-6.137237549E0,6.170460685E0
9.113125042E0,1.637594604E-1,-4.059558105E-1,-6.513405304E0,6.528098187E0
9.123064042E0,-4.221221924E-2,-4.604425049E-1,-6.336772614E0,6.353619152E0
9.133003042E0,-3.656895447E-1,-8.276289368E-1,-5.868246918E0,5.937593821E0
9.142942042E0,-5.057981873E-1,-1.157243500E0,-4.863835602E0,5.025130952E0
9.152881042E0,-3.896397400E-1,-1.258582764E0,-3.448079681E0,3.691219743E0
9.162820042E0,1.323248291E-1,-1.138083344E0,-1.943708038E0,2.256267824E0
9.172759042E0,5.860313416E-1,-8.643026733E-1,-6.831793213E-1,1.247872521E0
9.182698042E0,9.782157898E-1,-6.948550415E-1,8.472381592E-2,1.202874800E0
9.192637042E0,1.071172485E0,-6.650669861E-1,4.936734009E-1,1.354045057E0
9.202577042E0,1.055305481E0,-4.424798584E-1,7.744894409E-1,1.381771319E0
9.212516042E0,1.146465912E0,-1.962419128E-1,1.022074585E0,1.548396407E0
9.222455042E0,9.698332214E-1,-1.901046753E-1,1.467548218E0,1.769297611E0
9.232394042E0,5.071453857E-1,-3.841012573E-1,1.830693054E0,1.938083403E0
9.242333042E0,2.466870117E-1,-4.014651489E-1,1.775607605E0,1.837065898E0
9.252272042E0,2.387535095E-1,-1.839674377E-1,1.465452576E0,1.496127838E0
9.262211042E0,3.279679871E-1,2.739303589E-1,1.032702484E0,1.117620357E0
9.272150042E0,5.954617310E-1,7.324269104E-1,5.034031677E-1,1.069784371E0
9.282089042E0,7.502398682E-1,7.758366394E-1,5.261558533E-1,1.200675782E0
9.292029042E0,9.186396790E-1,6.077362061E-1,1.024768982E0,1.504457916E0
9.301968042E0,7.032376099E-1,5.213658142E-1,1.796414337E0,1.998366813E0
9.311907042E0,-4.790039063E-2,5.828878784E-1,2.178120575E0,2.255274255E0
9.321846042E0,-4.055067444E-1,5.977070618E-1,2.580932922E0,2.680094066E0
9.331785042E0,-1.514849854E-1,1.080902252E0,2.782713318E0,2.989112040E0
9.341724042E0,-1.299298096E-1,1.509461060E0,2.699037323E0,3.095182857E0
9.351663042E0,-4.120930481E-1,1.625619507E0,2.747087402E0,3.218532066E0
9.361602042E0,-7.336244202E-1,1.669178925E0,3.058439941E0,3.560676614E0
9.371541042E0,-7.050338745E-1,2.063159637E0,3.871698761E0,4.443394170E0
9.381481042E0,-4.020639038E-1,2.858904877E0,5.462291107E0,6.178318268E0
9.391420042E0,2.881507874E-1,3.798800354E0,7.771089935E0,8.654695476E0
9.401359042E0,9.906399536E-1,4.599335632E0,1.098790054E1,1.195279106E1
9.411298042E0,2.160307617E0,4.552782440E0,1.610471008E1,1.687472796E1
9.421237042E0,3.354075165E0,3.566932526E0,2.287258621E1,2.339076801E1
9.431176042E0,3.645668793E0,2.169588318E0,2.974299911E1,3.004403453E1
9.441115042E0,3.098556519E0,9.271719360E-1,3.557921265E1,3.572591598E1
9.451054042E0,2.292482758E0,6.114784241E-1,4.091172363E1,4.098046502E1
9.460993042E0,1.998344421E0,9.834548950E-1,4.452865219E1,4.458431821E1
9.470932042E0,1.819765778E0,1.439706116E0,4.507905762E1,4.513873876E1
9.480872042E0,1.708097992E0,2.070793762E0,4.353591660E1,4.361859488E1
9.490811042E0,1.680106201E0,2.761008453E0,4.098387360E1,4.111111552E1
9.500750042E0,1.813778229E0,3.377426605E0,3.780029388E1,3.799419718E1
9.510689667E0,1.871707764E0,3.702400818E0,3.458378265E1,3.483172526E1
9.520628667E0,1.479074249E0,3.900289307E0,3.099170242E1,3.127116142E1
9.530567667E0,8.649014282E-1,3.896846466E0,2.722283981E1,2.751393237E1
9.540506667E0,-6.556365967E-2,3.699257355E0,2.381891830E1,2.410455710E1
9.550445667E0,-1.125509491E0,3.173550568E0,2.118813904E1,2.145403064E1
9.560384667E0,-2.165247345E0,2.390678558E0,1.876363083E1,1.903884140E1
9.570324667E0,-3.001857605E0,1.590891724E0,1.610216537E1,1.645666477E1
9.580263667E0,-3.289259949E0,8.252339172E-1,1.368753662E1,1.410137939E1
9.590202667E0,-3.038082275E0,3.712280273E-2,1.166943329E1,1.205848230E1
9.600141667E0,-2.531236267E0,-5.773493958E-1,1.010264145E1,1.043090857E1
9.610080667E0,-1.991608429E0,-1.249751129E0,8.274642792E0,8.602214561E0
9.620019667E0,-1.616189117E0,-1.701811066E0,5.965245209E0,6.410333733E0
9.629958667E0,-1.271905060E0,-1.875300293E0,3.538791046E0,4.202087069E0
9.639897667E0,-9.059161377E-1,-1.980531464E0,1.459165649E0,2.621517370E0
9.649836667E0,-6.456074524E-1,-1.771266632E0,-2.877017212E-1,1.907083308E0
9.659776667E0,-1.700463867E-1,-1.527274017E0,-1.859882355E0,2.412601101E0
9.669715667E0,6.137237549E-2,-1.369053040E0,-3.461102600E0,3.722539993E0
9.679654667E0,2.541714478E-1,-1.098415833E0,-4.962181091E0,5.088650278E0
9.689593667E0,6.538403320E-1,-8.607101440E-1,-5.933511200E0,6.031159448E0
9.699532667E0,1.002914429E0,-6.743476868E-1,-6.208639069E0,6.325170451E0
9.709471667E0,1.224453735E0,-5.252577209E-1,-5.896089020E0,6.044753788E0
9.719410667E0,1.246308289E0,-5.057981873E-1,-5.357958069E0,5.524204090E0
9.729349667E0,1.238674164E0,-5.168751526E-1,-4.648433533E0,4.838326975E0
9.739288667E0,1.370849304E0,-4.505630493E-1,-4.000131683E0,4.252444986E0
9.749227667E0,1.570234680E0,-4.626878357E-1,-3.468736725E0,3.835603140E0
9.759167667E0,1.845811615E0,-4.191284180E-1,-2.957400055E0,3.511253940E0
9.769106667E0,1.980830841E0,-3.198847961E-1,-2.334994354E0,3.078671099E0
9.779045667E0,1.985620880E0,-2.360591125E-1,-1.382525024E0,2.431005888E0
9.788984667E0,1.659449158E0,-3.408412170E-1,-1.037342834E-1,1.697263988E0
9.798923667E0,1.095721436E0,-6.015989685E-1,1.101259918E0,1.665923225E0
9.808862667E0,5.902226257E-1,-7.717950439E-1,1.928589478E0,2.159510989E0
9.818801667E0,2.974314880E-1,-7.804769897E-1,2.398162994E0,2.539447887E0
9.828740667E0,4.849914551E-2,-6.132746887E-1,2.518363037E0,2.592414010E0
9.838679667E0,-1.260379028E-1,-4.731660461E-1,2.199975128E0,2.253810601E0
9.848619667E0,-2.336640930E-1,-2.555186462E-1,1.782193909E0,1.815517506E0
9.858558667E0,-3.472778320E-1,1.053808594E-1,1.404229889E0,1.450368436E0
9.868497667E0,-3.189866638E-1,2.752775574E-1,1.109043732E0,1.186384518E0
9.878436667E0,-3.525169373E-1,3.915856934E-1,8.545729065E-1,1.003943424E0
9.888375667E0,-4.061054993E-1,5.595364380E-1,6.339317322E-1,9.380150015E-1
9.898314667E0,-2.868035889E-1,7.077282715E-1,3.619473267E-1,8.450689156E-1
9.908253667E0,-2.212399292E-1,9.141490173E-1,1.369651794E-1,9.504604108E-1
9.918192667E0,-2.279759216E-1,1.005908203E0,4.261637878E-1,1.115992790E0
9.928131667E0,-3.384461975E-1,1.110241241E0,1.190624084E0,1.662758898E0
9.938071667E0,-6.622229004E-1,1.384171600E0,1.797462158E0,2.363332477E0
9.948010667E0,-9.951306152E-1,1.961520996E0,1.766626282E0,2.821137710E0
9.957949667E0,-1.179846497E0,2.885998535E0,1.805844727E0,3.603068203E0
9.967888667E0,-1.069525909E0,4.103117523E0,2.512076111E0,4.928487138E0
9.977827667E0,-3.327580261E-1,5.714815979E0,4.639003143E0,7.368188362E0
9.987766667E0,8.741821289E-1,7.614515533E0,8.798553314E0,1.166874379E1
9.997705667E0,2.922073517E0,8.521778870E0,1.494102997E1,1.744687953E1
1.000764467E1,5.503156128E0,7.631130981E0,2.329800156E1,2.512599777E1
1.001758367E1,7.898475037E0,5.570366364E0,3.199955658E1,3.342733179E1
1.002752267E1,8.403674469E0,3.024161224E0,3.912533844E1,4.013177549E1
1.003746267E1,6.443350983E0,2.993774414E-1,4.561584137E1,4.606963623E1
1.004740167E1,3.025059357E0,-1.844314728E0,5.006923050E1,5.019442523E1
1.005734067E1,1.715432739E-1,-2.546504517E0,4.950849655E1,4.957424072E1
1.006727967E1,-9.862989807E-1,-1.948198700E0,4.520838867E1,4.526109444E1
1.007721867E1,-9.237290955E-1,-8.053253174E-1,4.034485245E1,4.036346050E1
1.008715767E1,-7.982899475E-1,5.502557373E-1,3.564432724E1,3.565751131E1
1.009709667E1,-6.474037170E-1,1.733395386E0,3.143403259E1,3.148844544E1
1.010703567E1,8.981323242E-4,2.721490631E0,2.825419510E1,2.838496174E1
1.011697467E1,6.929090881E-1,3.194956055E0,2.617846161E1,2.638180660E1
1.012691467E1,8.177494812E-1,3.206631775E0,2.410212936E1,2.432825192E1
1.013685367E1,3.403921509E-1,3.010240173E0,2.133782776E1,2.155180517E1
1.014679267E1,-2.068698120E-1,2.632425842E0,1.845437393E1,1.864232759E1
1.015673167E1,-5.902226257E-1,2.139650574E0,1.608075989E1,1.623321613E1
1.016667067E1,-8.102650452E-1,1.547032928E0,1.352512436E1,1.363740552E1
1.017660967E1,-8.032296753E-1,8.466394043E-1,1.076755875E1,1.083061852E1
1.018654867E1,-5.571414185E-1,-1.916015625E-2,8.231981506E0,8.250835909E0
1.019648767E1,-4.688250732E-1,-7.930508423E-1,5.846242676E0,5.918384916E0
1.020642667E1,-5.249583435E-1,-1.411265259E0,3.638932800E0,3.938157287E0
1.021636667E1,-6.483018494E-1,-1.789079590E0,1.578168182E0,2.472188480E0
1.022630567E1,-8.803193665E-1,-1.913770294E0,-4.023632813E-1,2.144615382E0
1.023624467E1,-1.022523651E0,-1.828148346E0,-2.346370697E0,3.145335664E0
1.024618367E1,-7.553292847E-1,-1.654060364E0,-4.336631927E0,4.702426447E0
1.025612267E1,-2.591111755E-1,-1.384021912E0,-6.165079651E0,6.323832885E0
1.026606167E1,3.719764709E-1,-9.857002258E-1,-7.730224915E0,7.801688834E0
1.027600067E1,1.129850464E0,-6.101312256E-1,-8.868457947E0,8.960935695E0
1.028593967E1,1.518891449E0,-4.102967834E-1,-9.184301147E0,9.318087907E0
1.029587867E1,1.570683746E0,-4.802014160E-1,-8.434510345E0,8.592939287E0
1.030581867E1,1.165177002E0,-7.101232910E-1,-6.766079865E0,6.902300288E0
1.031575767E1,5.321434021E-1,-1.090781708E0,-5.042114868E0,5.186126076E0
1.032569667E1,-1.523831177E-1,-1.484762421E0,-3.591930542E0,3.889692157E0
1.033563567E1,-6.397695923E-1,-1.673220520E0,-2.348765717E0,2.953924920E0
1.034557467E1,-5.959107971E-1,-1.574126587E0,-1.176703033E0,2.053683086E0
1.035551367E1,-1.772314453E-1,-1.318158875E0,-5.029541016E-2,1.330970861E0
1.036545267E1,1.899549866E-1,-1.056952057E0,1.009351044E0,1.473777486E0
1.037539167E1,3.532653809E-1,-8.660989380E-1,1.945653992E0,2.158817559E0
1.038533067E1,1.543290710E-1,-8.222401428E-1,2.804268494E0,2.926400195E0
1.039527067E1,-1.254391479E-1,-8.316705322E-1,3.528612213E0,3.627466748E0
1.040520967E1,-5.608836365E-1,-8.180488586E-1,3.828738098E0,3.955127029E0
1.041514867E1,-8.205935669E-1,-7.562274170E-1,3.925736389E0,4.081257148E0
1.042508767E1,-8.705895996E-1,-5.870791626E-1,3.784280548E0,3.927259536E0
1.043502667E1,-6.864724731E-1,-2.272274780E-1,3.340752869E0,3.418114467E0
1.044496567E1,-3.477268982E-1,1.612147522E-1,2.923720093E0,2.948735894E0
1.045490467E1,7.304809570E-2,6.011499023E-1,2.535876617E0,2.607179980E0
1.046484367E1,4.174818420E-1,9.207353210E-1,2.108964386E0,2.338755096E0
1.047478267E1,6.486012268E-1,1.146316223E0,1.862576752E0,2.281209458E0
1.048472267E1,8.132588196E-1,1.346599731E0,1.931134186E0,2.490783007E0
1.049466167E1,7.861651611E-1,1.501826935E0,2.077529755E0,2.681355941E0
1.050460025E1,7.686515808E-1,1.651515656E0,1.886676636E0,2.622570865E0
1.051453925E1,6.379733276E-1,1.814826050E0,1.689237213E0,2.560102717E0
1.052447825E1,3.484753418E-1,1.862876129E0,2.330952759E0,3.004177641E0
1.053441725E1,-2.574645996E-2,1.852397919E0,3.533402252E0,3.989608052E0
1.054435625E1,-3.061134338E-1,2.145039368E0,5.083878021E0,5.526365447E0
1.055429525E1,-4.481680298E-1,2.902763672E0,7.137756958E0,7.718449709E0
1.056423425E1,-7.499404907E-1,3.742068329E0,9.616302795E0,1.034595407E1
1.057417325E1,-8.355624390E-1,4.539160767E0,1.224618393E1,1.308706101E1
1.058411325E1,3.995191956E-1,4.922214203E0,1.573527832E1,1.649202207E1
1.059405225E1,2.770438843E0,5.013823700E0,2.066542603E1,2.144466349E1
1.060399125E1,5.345084839E0,4.677772522E0,2.615286484E1,2.710025511E1
1.061393025E1,6.022126923E0,3.450025635E0,3.179852463E1,3.254711751E1
1.062386925E1,3.873195648E0,1.078357544E0,3.807736771E1,3.828903800E1
1.063380825E1,3.686833191E-1,-1.039588165E0,4.326333344E1,4.327739238E1
1.064374725E1,-2.301913147E0,-1.724264374E0,4.518653412E1,4.527797210E1
1.065368625E1,-2.815794525E0,-9.328601074E-1,4.301499985E1,4.311715597E1
1.066362625E1,-2.026186523E0,6.623725891E-1,3.855517410E1,3.861405987E1
1.067356525E1,-7.932005310E-1,2.242486725E0,3.457540009E1,3.465712344E1
1.068350425E1,7.357200623E-1,3.635639648E0,3.146097656E1,3.167889212E1
1.069344325E1,1.681752777E0,4.498894501E0,2.916819443E1,2.956098629E1
1.070338225E1,1.887125702E0,4.608766022E0,2.737956390E1,2.782880679E1
1.071332125E1,1.825004883E0,4.500092010E0,2.541100754E1,2.587084798E1
1.072326025E1,1.636546783E0,4.249213715E0,2.282064423E1,2.327049431E1
1.073319925E1,1.304387512E0,3.763773193E0,1.991324020E1,2.030774608E1
1.074313825E1,7.235952759E-1,2.978057098E0,1.689147400E1,1.716724521E1
1.075307725E1,3.023712158E-2,1.970801697E0,1.379501312E1,1.393511251E1
1.076301725E1,-6.017486572E-1,8.683442688E-1,1.078058167E1,1.083222342E1
1.077295625E1,-7.197033691E-1,-1.273851013E-1,7.995323639E0,8.028661158E0
1.078289525E1,-5.465135193E-1,-8.292755127E-1,5.670508118E0,5.756825272E0
1.079283425E1,-4.788542175E-1,-1.295256500E0,3.827839966E0,4.069318071E0
1.080277325E1,-5.212161255E-1,-1.622775421E0,1.988614655E0,2.619094225E0
1.081271225E1,-6.366261292E-1,-1.869612122E0,-1.601669312E-2,1.975094643E0
1.082265125E1,-6.267466736E-1,-1.902244263E0,-1.786085815E0,2.683551223E0
1.083259025E1,-4.679269409E-1,-1.692380676E0,-3.058739319E0,3.526895830E0
1.084252925E1,-2.618055725E-1,-1.345851288E0,-4.118535461E0,4.340759403E0
1.085246925E1,5.059478760E-2,-1.058299255E0,-4.899461517E0,5.012711871E0
1.086240825E1,3.550616455E-1,-8.520281982E-1,-5.255121918E0,5.335571871E0
1.087234725E1,7.244934082E-1,-6.156697083E-1,-5.338348846E0,5.422352653E0
1.088228625E1,1.010249176E0,-3.930825806E-1,-5.276826782E0,5.387023130E0
1.089222525E1,1.087937622E0,-2.817141724E-1,-5.173242188E0,5.293902707E0
1.090216425E1,9.458830261E-1,-3.439846802E-1,-4.773573303E0,4.878526646E0
1.091210325E1,5.572911072E-1,-5.911207581E-1,-3.831133118E0,3.916322011E0
1.092204225E1,4.535568237E-2,-8.979826355E-1,-2.704126740E0,2.849689698E0
1.093198125E1,-3.432362366E-1,-1.144220581E0,-1.691033478E0,2.070421714E0
1.094192125E1,-4.393363953E-1,-1.161285095E0,-8.032296753E-1,1.478775660E0
1.095186025E1,-1.004411316E-1,-1.007854156E0,-5.343887329E-2,1.014255458E0
1.096179925E1,3.959266663E-1,-8.469387817E-1,7.545808411E-1,1.201438917E0
1.097173825E1,5.640270996E-1,-7.090754700E-1,1.555714874E0,1.800323127E0
1.098167725E1,3.953279114E-1,-7.017407227E-1,2.278112640E0,2.416303251E0
1.099161625E1,9.086105347E-2,-7.244934082E-1,2.834954681E0,2.927475786E0
1.100155525E1,-1.381626892E-1,-6.641688538E-1,3.079995117E0,3.153819766E0
1.101149425E1,-2.116598511E-1,-5.066963196E-1,2.969824219E0,3.020165052E0
1.102143325E1,-1.353186035E-1,-3.881428528E-1,2.655178528E0,2.686808332E0
1.103137325E1,-6.661148071E-2,-2.326162720E-1,2.312541046E0,2.325165265E0
1.104131225E1,1.197509766E-3,-4.490661621E-2,1.981279907E0,1.981789118E0
1.105125125E1,2.784210205E-2,1.242416382E-1,1.702260132E0,1.707015150E0
1.106119025E1,4.400848389E-2,2.728825378E-1,1.656305695E0,1.679211178E0
1.107112925E1,1.058299255E-1,4.635859680E-1,1.617985382E0,1.686412945E0
1.108106825E1,3.706292725E-1,7.801776123E-1,1.431323547E0,1.671744676E0
1.109100725E1,5.228627014E-1,1.139729919E0,1.211430817E0,1.743540742E0
1.110094625E1,2.956352234E-1,1.272952881E0,1.157243500E0,1.745572038E0
1.111088525E1,1.736389160E-2,1.185384979E0,1.511407013E0,1.920882665E0
1.112082525E1,-1.751358032E-1,1.089284821E0,2.791844330E0,3.001934165E0
1.113076425E1,-2.406994629E-1,1.493594055E0,4.917124786E0,5.144596738E0
1.114070325E1,1.477427673E-1,2.329006805E0,7.045997772E0,7.422411012E0
1.115064225E1,7.062313843E-1,3.504362640E0,9.103319550E0,9.780068870E0
1.116058125E1,1.525328064E0,4.635859680E0,1.211745163E1,1.306332479E1
1.117052025E1,2.935994568E0,4.691693573E0,1.693054276E1,1.781222419E1
1.118045925E1,4.424948273E0,3.713477783E0,2.368629410E1,2.438053758E1
1.119039825E1,5.416636047E0,2.312840424E0,3.055491074E1,3.111738657E1
1.120033725E1,5.536237335E0,6.563850403E-1,3.671894257E1,3.713975644E1
1.121027725E1,4.158352661E0,-5.204676819E-1,4.309837646E1,4.330164936E1
1.122021625E1,2.662064209E0,-1.006357269E0,4.677877304E1,4.686526377E1
1.123015525E1,1.370849304E0,-1.026415558E0,4.607314041E1,4.610495661E1
1.124009425E1,2.733316040E-1,-3.480262756E-1,4.248046143E1,4.248276633E1
1.125003325E1,-6.376739502E-2,6.881190491E-1,3.864843018E1,3.865460812E1
1.125997225E1,2.143542480E-1,1.613794098E0,3.578503464E1,3.582204605E1
1.126991125E1,3.844006348E-1,2.271077271E0,3.273243256E1,3.281337680E1
1.127985025E1,3.712280273E-2,2.575095062E0,2.985571472E1,2.996658463E1
1.128978925E1,-2.547702026E-1,2.573448486E0,2.733166351E1,2.745373154E1
1.129972925E1,-3.692820740E-1,2.375709686E0,2.480656448E1,2.492280095E1
1.130966825E1,-3.894900513E-1,1.923050995E0,2.222458374E1,2.231102754E1
1.131960725E1,-4.444258118E-1,1.482966156E0,1.972029144E1,1.978096554E1
1.132954625E1,-3.905378723E-1,9.044192505E-1,1.709714630E1,1.712550454E1
1.133948525E1,-3.391946411E-1,2.079176331E-1,1.443627960E1,1.444176068E1
1.134942425E1,-1.416055298E-1,-3.588038635E-1,1.150043472E1,1.150690189E1
1.135936325E1,1.002914429E-2,-8.333171082E-1,8.340056763E0,8.381590827E0
1.136930225E1,-1.351689148E-1,-1.181044006E0,5.248086548E0,5.381035959E0
1.137924125E1,-3.188369751E-1,-1.410067749E0,2.448308716E0,2.843266368E0
1.138918125E1,-3.960763550E-1,-1.536255341E0,2.589614868E-2,1.586703363E0
1.139912025E1,-3.046165466E-1,-1.518442383E0,-2.044598236E0,2.564925039E0
1.140905925E1,-1.196012878E-1,-1.508263550E0,-3.769161987E0,4.061495475E0
1.141899825E1,1.451980591E-2,-1.526375885E0,-5.163811798E0,5.384699291E0
1.142893725E1,6.212081909E-2,-1.444047089E0,-6.128555603E0,6.296691573E0
1.143887625E1,2.571652222E-1,-1.242865448E0,-6.665189667E0,6.784954073E0
1.144881525E1,5.477110291E-1,-1.033899994E0,-6.760391693E0,6.860891517E0
1.145875425E1,8.318202209E-1,-8.253836060E-1,-6.378535767E0,6.485283456E0
1.146869325E1,1.142424316E0,-5.933660889E-1,-5.824088745E0,5.964664814E0
1.147863325E1,1.517095184E0,-3.258723450E-1,-5.229674835E0,5.455022407E0
1.148857225E1,1.661544800E0,-3.128494263E-1,-4.671934662E0,4.968458450E0
1.149851125E1,1.475182343E0,-4.255650330E-1,-3.805236969E0,4.103303173E0
1.150845013E1,1.189426575E0,-5.300477600E-1,-2.668800201E0,2.969542173E0
1.151838913E1,1.061143341E0,-5.769003296E-1,-1.549877014E0,1.964932045E0
1.152832813E1,8.623567200E-1,-7.448510742E-1,-7.816744995E-1,1.381838362E0
1.153826713E1,4.326004028E-1,-9.560618591E-1,-1.989363098E-1,1.068069774E0
1.154820613E1,6.915618896E-2,-1.041983185E0,2.145039368E-1,1.066078550E0
1.155814513E1,-1.689985657E-1,-9.777667236E-1,7.089257812E-1,1.219493356E0
1.156808512E1,-2.662962341E-1,-8.267308044E-1,1.240919495E0,1.514687657E0
1.157802412E1,-2.790197754E-1,-7.060816956E-1,1.593586121E0,1.765196907E0
1.158796312E1,-2.637515259E-1,-5.080435181E-1,1.701511688E0,1.795220073E0
1.159790212E1,-9.924362183E-2,-2.236349487E-1,1.540147247E0,1.559459980E0
1.160784112E1,2.573149109E-1,1.169068909E-1,1.146465912E0,1.180788834E0
1.161778013E1,6.617738342E-1,3.460803223E-1,8.867559814E-1,1.159332725E0
1.162771913E1,8.752299500E-1,4.453239441E-1,9.843530273E-1,1.390428626E0
1.163765813E1,8.693920898E-1,4.474195862E-1,1.172062683E0,1.526354423E0
1.164759813E1,8.641529846E-1,4.052073669E-1,1.461111603E0,1.745222194E0
1.165753713E1,6.731501770E-1,4.209246826E-1,1.931583252E0,2.088377985E0
1.166747613E1,3.249742126E-1,5.393284607E-1,2.186802521E0,2.275651268E0
1.167741513E1,-1.652563477E-1,6.743476868E-1,2.114053802E0,2.225146724E0
1.168735413E1,-6.953041077E-1,7.514373779E-1,2.051633606E0,2.292881678E0
1.169729313E1,-1.069376221E0,7.770341492E-1,2.314487000E0,2.665370076E0
1.170723213E1,-1.189276886E0,8.684939575E-1,3.207978973E0,3.529842824E0
1.171717113E1,-9.351054382E-1,1.208586731E0,4.973856812E0,5.203302379E0
1.172711013E1,-4.501139832E-1,1.975442047E0,7.713759155E0,7.975403074E0
1.173705013E1,2.055226135E-1,2.994373169E0,1.076890594E1,1.117934906E1
1.174698913E1,1.392105103E0,3.387755127E0,1.451067490E1,1.496577854E1
1.175692813E1,3.026107178E0,3.046464844E0,2.004317001E1,2.049797397E1
1.176686712E1,5.053341522E0,2.183209991E0,2.691238541E1,2.746960420E1
1.177680612E1,6.890471191E0,1.166075134E0,3.449816071E1,3.519888374E1
1.178674512E1,7.735464020E0,3.388952637E-1,4.243510574E1,4.313572131E1
1.179668412E1,8.203840027E0,-1.203497314E-1,4.789575027E1,4.859341899E1
1.180662312E1,7.822732544E0,9.086105347E-2,4.844555695E1,4.907316362E1
1.181656212E1,7.068600769E0,6.786886597E-1,4.480527695E1,4.536450790E1
1.182650213E1,5.518574066E0,1.034049683E0,4.024665665E1,4.063640350E1
1.183644113E1,3.753145294E0,1.311871948E0,3.684767487E1,3.706154679E1
1.184638013E1,1.907333679E0,1.410965881E0,3.339226044E1,3.347643654E1
1.185631913E1,5.760021973E-1,1.296753387E0,2.946772156E1,2.950186370E1
1.186625813E1,1.818717957E-1,1.377285919E0,2.591515915E1,2.595236921E1
1.187619713E1,3.918850708E-1,1.631008301E0,2.322465408E1,2.328515234E1
1.188613613E1,5.135820007E-1,1.578168182E0,2.082723953E1,2.089325939E1
1.189607513E1,1.505868530E-1,1.152004395E0,1.851978790E1,1.855619397E1
1.190601413E1,-3.264710999E-1,5.637277222E-1,1.644749725E1,1.646039302E1
1.191595413E1,-4.538562012E-1,-6.556365967E-2,1.435963898E1,1.436695916E1
1.192589313E1,-3.866459656E-1,-5.269042969E-1,1.191297684E1,1.193089017E1
1.193583213E1,-1.749861145E-1,-8.267308044E-1,9.396260376E0,9.434183219E0
1.194577113E1,-4.400848389E-2,-9.982740784E-1,7.041656799E0,7.112202075E0
1.195571013E1,-5.463638306E-2,-1.151705017E0,4.727918243E0,4.866479271E0
1.196564913E1,3.742218018E-3,-1.232985992E0,2.326013031E0,2.632604240E0
1.197558812E1,1.287322998E-2,-1.288819885E0,2.514770508E-2,1.289129483E0
1.198552712E1,1.216969299E-1,-1.179397430E0,-1.830992432E0,2.181357771E0
1.199546612E1,2.426454163E-1,-9.991722107E-1,-3.282823334E0,3.440080078E0
1.200540612E1,4.303550720E-1,-8.408015442E-1,-4.488565979E0,4.586870095E0
1.201534512E1,5.337899780E-1,-7.451504517E-1,-5.360353088E0,5.438158343E0
1.202528413E1,5.367837524E-1,-6.237528992E-1,-5.828429718E0,5.886237971E0
1.203522313E1,6.074368286E-1,-4.513114929E-1,-5.829327850E0,5.878241638E0
1.204516213E1,6.541397095E-1,-3.691323853E-1,-5.360502777E0,5.412868694E0
1.205510113E1,6.243516541E-1,-3.324586487E-1,-4.674179993E0,4.727399110E0
1.206504013E1,6.807843018E-1,-3.089575195E-1,-4.146976318E0,4.213826598E0
1.207497913E1,7.964936829E-1,-3.393443298E-1,-3.696862335E0,3.796886604E0
1.208491913E1,8.526269531E-1,-3.817062378E-1,-3.108585663E0,3.245917004E0
1.209485813E1,8.078700256E-1,-3.710783386E-1,-2.406246185E0,2.565223931E0
1.210479713E1,6.550378418E-1,-4.221221924E-1,-1.838925934E0,1.997225653E0
1.211473613E1,4.614903259E-1,-5.095404053E-1,-1.424437866E0,1.581653559E0
1.212467513E1,3.180885315E-1,-5.670208740E-1,-8.526269531E-1,1.072224653E0
1.213461413E1,7.888595581E-2,-5.679190063E-1,1.374142456E-1,5.896080619E-1
1.214455313E1,-1.984872437E-1,-6.035449219E-1,9.925859070E-1,1.178511961E0
1.215449213E1,-4.227209473E-1,-6.246510315E-1,1.383423157E0,1.575671775E0
1.216443113E1,-5.631289673E-1,-5.498066711E-1,1.582359467E0,1.767275613E0
1.217437112E1,-5.766009521E-1,-5.198689270E-1,1.758543091E0,1.922291903E0
1.218431012E1,-5.168751526E-1,-4.815486145E-1,1.817819824E0,1.950260984E0
1.219424912E1,-4.559518433E-1,-3.447331238E-1,1.869462433E0,1.954897132E0
1.220418812E1,-2.577639771E-1,-1.121168518E-1,1.972448273E0,1.992376632E0
1.221412712E1,-5.852828979E-2,1.362167358E-2,1.971550140E0,1.972465733E0
1.222406612E1,1.224453735E-1,9.445358276E-2,1.785037994E0,1.791724027E0
1.223400513E1,2.323168945E-1,2.207908630E-1,1.380279694E0,1.417000980E0
1.224394413E1,2.106120300E-1,4.309538269E-1,1.109642487E0,1.208877610E0
1.225388313E1,6.376739502E-2,6.947053528E-1,1.258732452E0,1.439127928E0
1.226382313E1,-1.287322998E-1,6.816824341E-1,1.653012543E0,1.792683300E0
1.227376213E1,-3.068618774E-1,6.140231323E-1,2.173330536E0,2.279156475E0
1.228370113E1,-5.676196289E-1,7.755372620E-1,3.021466827E0,3.170632725E0
1.229364013E1,-7.111711121E-1,1.100212097E0,4.359384613E0,4.551973771E0
1.230357913E1,-4.245172119E-1,1.812431030E0,5.876779175E0,6.164548205E0
1.231351813E1,4.028123474E-1,2.601290588E0,8.221503296E0,8.632617619E0
1.232345713E1,1.834285583E0,2.727029114E0,1.264480499E1,1.306492957E1
1.233339613E1,3.845952301E0,2.197430420E0,1.902992706E1,1.953863285E1
1.234333613E1,5.581593018E0,1.192719727E0,2.635793839E1,2.696882787E1
1.235327513E1,6.665039978E0,-3.209326172E-1,3.359493896E1,3.425121428E1
1.236321413E1,6.227499847E0,-1.382075958E0,3.991165329E1,4.041821318E1
1.237315313E1,5.547014923E0,-1.637594604E0,4.373934357E1,4.412007781E1
1.238309212E1,5.009183350E0,-1.285826111E0,4.393723206E1,4.424054280E1
1.239303112E1,4.669988708E0,-2.865042114E-1,4.150718536E1,4.177005286E1
1.240297012E1,4.044289856E0,8.800199890E-1,3.872626831E1,3.894681724E1
1.241290912E1,3.201692047E0,1.869013367E0,3.635295364E1,3.654150081E1
1.242284812E1,2.330952759E0,2.542163544E0,3.320440109E1,3.338305241E1
1.243278813E1,1.828747101E0,3.004252625E0,3.006078827E1,3.026583620E1
1.244272713E1,1.735790405E0,3.251388702E0,2.798340820E1,2.822508869E1
1.245266613E1,1.631756744E0,3.298989716E0,2.649744827E1,2.675183598E1
1.246260513E1,1.340462494E0,2.999013519E0,2.485431519E1,2.507045881E1
1.247254413E1,9.389973450E-1,2.466720428E0,2.268816971E1,2.284117927E1
1.248248313E1,3.561094666E-1,1.817819824E0,2.027937881E1,2.036380338E1
1.249242213E1,-1.972897339E-1,1.156195679E0,1.759501099E1,1.763406145E1
1.250236113E1,-3.986210632E-1,5.989045715E-1,1.480705856E1,1.482452592E1
1.251229975E1,-3.121009827E-1,1.237925720E-1,1.225202179E1,1.225662146E1
1.252223975E1,-2.046244812E-1,-2.724334717E-1,9.705068207E0,9.711047321E0
1.253217875E1,-7.125183105E-2,-6.656657410E-1,7.315886536E0,7.346453805E0
1.254211775E1,7.933502197E-2,-1.016835480E0,5.365442505E0,5.461521923E0
1.255205675E1,9.894424438E-2,-1.270258484E0,3.708538055E0,3.921300943E0
1.256199575E1,-1.302291870E-1,-1.580413513E0,2.075284424E0,2.611794776E0
1.257193475E1,-3.743714905E-1,-1.835932159E0,4.956193542E-1,1.938153619E0
1.258187375E1,-5.761518860E-1,-1.819466400E0,-9.357041931E-1,2.125547298E0
1.259181275E1,-7.469467163E-1,-1.651216278E0,-2.325713654E0,2.948455289E0
1.260175275E1,-7.363188171E-1,-1.489552460E0,-3.541934509E0,3.912317983E0
1.261169175E1,-5.870791626E-1,-1.245110779E0,-4.516408081E0,4.721536270E0
1.262163075E1,-2.647993469E-1,-8.848100281E-1,-5.202880554E0,5.284219293E0
1.263156975E1,-1.347198486E-3,-5.870791626E-1,-5.656138000E0,5.686524496E0
1.264150875E1,6.721023560E-2,-3.665876770E-1,-6.042783966E0,6.054266413E0
1.265144775E1,2.963836670E-1,-1.326242065E-1,-6.387666779E0,6.395914269E0
1.266138675E1,4.457730103E-1,-3.203338623E-2,-6.440955963E0,6.456442785E0
1.267132575E1,3.939807129E-1,-4.834945679E-2,-5.946384430E0,5.959617963E0
1.268126475E1,3.396437073E-1,-2.912942505E-1,-4.883744202E0,4.904198978E0
1.269120475E1,1.529818726E-1,-6.718029785E-1,-3.484154663E0,3.551627291E0
1.270114375E1,-8.681945801E-2,-1.043480072E0,-2.148482208E0,2.390055246E0
1.271108275E1,-1.450483704E-1,-1.347348175E0,-9.421408081E-1,1.650459159E0
1.272102175E1,-4.790039062E-3,-1.581611023E0,1.124162292E-1,1.585608332E0
1.273096075E1,1.047821045E-1,-1.702409821E0,8.710386658E-1,1.915172797E0
1.274089975E1,1.085243225E-1,-1.682800598E0,1.256337433E0,2.102850239E0
1.275083875E1,2.218386841E-1,-1.597178650E0,1.442849579E0,2.163794572E0
1.276077775E1,3.391946411E-1,-1.403032379E0,1.434017944E0,2.034689246E0
1.277071675E1,2.860551453E-1,-1.165626068E0,1.231489105E0,1.719615391E0
1.278065675E1,2.228865051E-1,-1.009051666E0,9.945318604E-1,1.434209636E0
1.279059575E1,2.835104370E-1,-7.921527100E-1,9.083111572E-1,1.238108736E0
1.280053475E1,2.911445618E-1,-4.140390015E-1,9.178912354E-1,1.048197391E0
1.281047375E1,3.619473267E-1,-1.317260742E-2,8.978329468E-1,9.681339707E-1
1.282041275E1,4.752616882E-1,3.233276367E-1,8.494834900E-1,1.025688370E0
1.283035175E1,5.795947266E-1,6.450086975E-1,1.134191437E0,1.427710223E0
1.284029075E1,7.502398682E-1,9.635462952E-1,1.472937012E0,1.913328190E0
1.285022975E1,1.151555328E0,1.391057281E0,1.868564301E0,2.598586650E0
1.286016975E1,1.222507782E0,1.671873322E0,2.559078369E0,3.292198016E0
1.287010875E1,8.887019348E-1,1.751956787E0,3.702999573E0,4.191819360E0
1.288004775E1,5.051994324E-1,1.944606171E0,5.128036194E0,5.507583393E0
1.288998675E1,-1.457968140E-1,2.432142334E0,6.987469482E0,7.400088027E0
1.289992575E1,-2.954855347E-1,3.162024536E0,9.023685150E0,9.566222063E0
1.290986475E1,6.396199036E-1,3.473227386E0,1.204994202E1,1.255681188E1
1.291980375E1,2.255210266E0,2.812201996E0,1.703083420E1,1.740815231E1
1.292974275E1,4.297712860E0,1.471290436E0,2.464564911E1,2.506078713E1
1.293968275E1,6.019881592E0,3.679348755E-1,3.411331100E1,3.464234891E1
1.294962175E1,6.902146912E0,-5.918692017E-1,4.172318619E1,4.229437559E1
1.295956075E1,6.960675201E0,-1.568288727E0,4.666216553E1,4.720453602E1
1.296949975E1,6.312223663E0,-2.029030609E0,4.896812027E1,4.941495660E1
1.297943875E1,5.766159210E0,-1.845961304E0,4.779486008E1,4.817680785E1
1.298937775E1,5.670508118E0,-1.261875916E0,4.529895035E1,4.566992332E1
1.299931675E1,5.631738739E0,-2.532733154E-1,4.282669144E1,4.319613557E1
1.300925575E1,5.501060486E0,7.780819702E-1,3.978875885E1,4.017477329E1
1.301919475E1,5.179379425E0,1.680555267E0,3.537848007E1,3.579507074E1
1.302913475E1,4.587360535E0,2.429148560E0,3.027080154E1,3.071263690E1
1.303907375E1,3.801045685E0,2.805915070E0,2.574541214E1,2.617531956E1
1.304901275E1,2.892884216E0,2.886896667E0,2.189347229E1,2.227166542E1
1.305895175E1,1.877246246E0,2.537523193E0,1.834195770E1,1.861156871E1
1.306889075E1,8.641529846E-1,1.879940643E0,1.498593658E1,1.512809415E1
1.307882975E1,1.371148682E-1,1.204994202E0,1.214963470E1,1.221001372E1
1.308876875E1,-1.790277100E-1,5.372328186E-1,1.012689102E1,1.014271126E1
1.309870775E1,-3.266207886E-1,-2.140548706E-1,8.465495911E0,8.474498312E0
1.310864775E1,-5.665718079E-1,-1.003213806E0,6.745722198E0,6.843406281E0
1.311858675E1,-7.879614258E-1,-1.632355499E0,4.803511047E0,5.134119795E0
1.312852575E1,-8.056246948E-1,-1.979932709E0,2.859653320E0,3.570263547E0
1.313846475E1,-6.996450806E-1,-1.974843292E0,9.437873840E-1,2.297878129E0
1.314840375E1,-5.221142578E-1,-1.980082397E0,-9.050180054E-1,2.238836124E0
1.315834275E1,-4.953199768E-1,-1.978735199E0,-2.669548645E0,3.359646534E0
1.316828175E1,-4.427792358E-1,-1.783840485E0,-4.140240326E0,4.529870890E0
1.317822075E1,-3.629951477E-1,-1.482517090E0,-5.118456116E0,5.341181087E0
1.318815975E1,-1.939965820E-1,-1.261426849E0,-5.674400024E0,5.816154056E0
1.319809975E1,1.459465027E-1,-1.113085327E0,-5.832621002E0,5.939673988E0
1.320803875E1,2.986289978E-1,-9.889933777E-1,-5.695805511E0,5.788737998E0
1.321797775E1,2.389031982E-1,-8.987310791E-1,-5.523813171E0,5.601544809E0
1.322791675E1,2.676434326E-1,-7.906558228E-1,-5.379064178E0,5.443445699E0
1.323785575E1,3.706292725E-1,-6.917115784E-1,-5.144951019E0,5.204455010E0
1.324779475E1,5.156776428E-1,-6.224057007E-1,-4.815635834E0,4.882997109E0
1.325773375E1,6.734495544E-1,-5.855822754E-1,-4.383634186E0,4.473554468E0
1.326767275E1,6.676116943E-1,-6.529421997E-1,-3.776496735E0,3.890239900E0
1.327761275E1,4.763095093E-1,-7.993377686E-1,-3.014132080E0,3.154489469E0
1.328755175E1,1.719923401E-1,-9.831555176E-1,-2.274520111E0,2.483871549E0
1.329749075E1,-2.077679443E-1,-1.191971283E0,-1.683998108E0,2.073598969E0
1.330742975E1,-5.643264771E-1,-1.345252533E0,-1.181044006E0,1.876974612E0
1.331736875E1,-7.906558228E-1,-1.430724792E0,-5.186714172E-1,1.714972332E0
1.332730775E1,-8.105644226E-1,-1.384171600E0,1.660047913E-1,1.612607607E0
1.333724675E1,-7.156617737E-1,-1.322649536E0,5.198689270E-1,1.591174808E0
1.334718575E1,-6.735992432E-1,-1.274599457E0,6.185137939E-1,1.568725288E0
1.335712475E1,-6.029461670E-1,-1.069226532E0,7.195536804E-1,1.422865755E0
1.336706475E1,-4.340972900E-1,-8.686436462E-1,9.268725586E-1,1.342413864E0
1.337700375E1,-1.902543640E-1,-6.939569092E-1,1.137634277E0,1.346099797E0
1.338694275E1,-1.202000427E-1,-5.733078003E-1,1.460812225E0,1.573881267E0
1.339688175E1,-3.451821899E-1,-3.740721130E-1,1.678010559E0,1.753510800E0
1.340682075E1,-4.882846069E-1,-1.164578247E-1,1.924697571E0,1.989081452E0
1.341675975E1,-4.707710266E-1,1.161584473E-1,2.230511627E0,2.282608215E0
1.342669875E1,-5.408253479E-1,4.234693909E-1,2.756068726E0,2.840375539E0
1.343663775E1,-4.314028931E-1,8.035290527E-1,3.651057587E0,3.763241807E0
1.344657775E1,-2.772235107E-1,1.142723694E0,5.053640900E0,5.188637264E0
1.345651675E1,-1.734892273E-1,1.733096008E0,6.998247070E0,7.211739204E0
1.346645575E1,8.502319336E-2,2.622845764E0,9.269923096E0,9.634211075E0
1.347639475E1,4.695735168E-1,3.494632874E0,1.196911011E1,1.247768228E1
1.348633375E1,1.177900543E0,4.012555847E0,1.564696198E1,1.619615612E1
1.349627275E1,2.742447052E0,4.164190521E0,1.987027954E1,2.048632489E1
1.350621175E1,5.481900330E0,3.917952576E0,2.465313354E1,2.555735857E1
1.351615125E1,8.387358398E0,3.413651276E0,3.167607925E1,3.294502683E1
1.352609125E1,9.091943207E0,2.489922180E0,3.995072205E1,4.104781767E1
1.353603025E1,7.369475098E0,7.078779602E-1,4.559907623E1,4.619616876E1
1.354596925E1,4.897216187E0,-8.755293274E-1,4.661561234E1,4.688032201E1
1.355590825E1,3.432062988E0,-1.024619293E0,4.444183273E1,4.458593273E1
1.356584725E1,3.368295593E0,8.532257080E-2,4.125690582E1,4.139426256E1
1.357578625E1,3.654799805E0,1.497485962E0,3.826807114E1,3.847135680E1
1.358572525E1,3.608396301E0,2.416125641E0,3.489348862E1,3.516267531E1
1.359566425E1,3.185675354E0,2.914439392E0,3.154031158E1,3.183447407E1
1.360560425E1,2.877166901E0,3.107986908E0,2.878828445E1,2.909816135E1
1.361554325E1,2.578088837E0,3.141517181E0,2.650972275E1,2.681941596E1
1.362548225E1,2.243684235E0,3.013982391E0,2.404330170E1,2.433513027E1
1.363542125E1,1.730551300E0,2.627785492E0,2.093875763E1,2.117384319E1
1.364536025E1,1.177601166E0,2.115700378E0,1.777643372E1,1.794058328E1
1.365529925E1,5.884263611E-1,1.416204987E0,1.493848526E1,1.501699784E1
1.366523825E1,-6.840774536E-2,5.348377991E-1,1.208601700E1,1.209803860E1
1.367517725E1,-5.794450378E-1,-4.273612976E-1,9.205706635E0,9.233819842E0
1.368511625E1,-8.282276917E-1,-1.089434509E0,6.684649200E0,6.823295655E0
1.369505625E1,-7.426057434E-1,-1.539548492E0,4.717140656E0,5.017279025E0
1.370499525E1,-5.203179932E-1,-1.758543091E0,3.047961731E0,3.557144266E0
1.371493425E1,-4.505630493E-1,-1.957479401E0,1.218915253E0,2.349571676E0
1.372487325E1,-5.195695496E-1,-2.172881470E0,-6.536906433E-1,2.327805373E0
1.373481225E1,-5.086422729E-1,-2.260599060E0,-2.329455872E0,3.285633840E0
1.374475125E1,-4.442761230E-1,-2.121238861E0,-3.755091248E0,4.335636730E0
1.375469025E1,-3.978726196E-1,-1.845811615E0,-4.850662994E0,5.205214177E0
1.376462925E1,-3.457809448E-1,-1.532513123E0,-5.687572632E0,5.900562971E0
1.377456925E1,-4.143383789E-1,-1.280137939E0,-6.346352692E0,6.487420283E0
1.378450825E1,-4.586462402E-1,-1.069525909E0,-6.724915466E0,6.824861176E0
1.379444725E1,-4.625381470E-1,-8.812174988E-1,-6.745871887E0,6.818890917E0
1.380438625E1,-3.796105957E-1,-8.309220886E-1,-6.558012543E0,6.621334022E0
1.381432525E1,-3.468287659E-1,-9.355545044E-1,-6.197711792E0,6.277514148E0
1.382426425E1,-4.628375244E-1,-1.117426300E0,-5.451812897E0,5.584364241E0
1.383420325E1,-6.318360901E-1,-1.227447510E0,-4.562961273E0,4.767227686E0
1.384414225E1,-6.816824341E-1,-1.254092102E0,-3.774700470E0,4.035567070E0
1.385408225E1,-6.116281128E-1,-1.278191986E0,-3.090473328E0,3.399836627E0
1.386402125E1,-4.565505981E-1,-1.277144165E0,-2.406695251E0,2.762556371E0
1.387396025E1,-2.725831604E-1,-1.154249725E0,-1.543290710E0,1.946365902E0
1.388389925E1,-3.772155762E-2,-1.066831512E0,-6.444099426E-1,1.246922839E0
1.389383825E1,7.723937988E-2,-1.074914703E0,1.908531189E-1,1.094455323E0
1.390377725E1,1.173559570E-1,-1.055455170E0,9.101074219E-1,1.398589845E0
1.391371625E1,1.914518738E-1,-1.056502991E0,1.512454834E0,1.854823985E0
1.392365525E1,1.582209778E-1,-1.069675598E0,1.988764343E0,2.263718926E0
1.393359525E1,8.981323242E-3,-9.458830261E-1,2.481240234E0,2.655433762E0
1.394353425E1,-3.173400879E-2,-7.084767151E-1,2.809058533E0,2.897197981E0
1.395347325E1,1.944456482E-1,-4.090992737E-1,2.829116821E0,2.865148044E0
1.396341225E1,5.701643372E-1,8.083190918E-3,2.620450745E0,2.681774564E0
1.397335125E1,1.077758789E0,3.561094666E-1,2.398013306E0,2.653082316E0
1.398329025E1,1.552272034E0,7.641609192E-1,2.493514709E0,3.034980393E0
1.399322925E1,1.866768036E0,1.250499573E0,3.243305511E0,3.945580150E0
1.400316825E1,1.878593445E0,1.556014252E0,4.270768890E0,4.918308713E0
1.401310725E1,1.412612457E0,1.599124603E0,5.298082581E0,5.711598067E0
1.402304725E1,8.096662903E-1,1.599573669E0,6.902296600E0,7.131331838E0
1.403298625E1,2.730322266E-1,1.762434998E0,9.439221039E0,9.606228060E0
1.404292525E1,5.104385376E-2,2.542313232E0,1.218735626E1,1.244980380E1
1.405286425E1,2.460882568E-1,3.788771210E0,1.475840973E1,1.523896336E1
1.406280325E1,3.649411011E-1,4.984185333E0,1.667741913E1,1.741010035E1
1.407274225E1,1.145567780E0,5.529651031E0,1.833776642E1,1.918757523E1
1.408268125E1,2.732268219E0,5.533842316E0,2.140129578E1,2.227339582E1
1.409262025E1,4.738546143E0,5.109923859E0,2.554168579E1,2.647532539E1
1.410256025E1,5.730832672E0,3.910617828E0,3.074277008E1,3.151592117E1
1.411249925E1,4.734055481E0,2.193538513E0,3.754282928E1,3.790365316E1
1.412243825E1,3.144211578E0,1.621128845E-1,4.226146683E1,4.237857862E1
1.413237725E1,1.533860321E0,-1.344953156E0,4.332560394E1,4.337360469E1
1.414231625E1,1.048868866E0,-1.572330322E0,4.191329086E1,4.195588516E1
1.415225525E1,1.635049896E0,-6.348298645E-1,3.897475159E1,3.901419816E1
1.416219425E1,2.732118530E0,6.719526672E-1,3.594026184E1,3.605022071E1
1.417213325E1,3.767365723E0,1.721569977E0,3.318434280E1,3.344185185E1
1.418207325E1,4.360432434E0,2.529739380E0,3.025703018E1,3.067410680E1
1.419201225E1,4.455035706E0,3.094514923E0,2.749721924E1,2.802713741E1
1.420195125E1,4.059109039E0,3.357967072E0,2.476839386E1,2.532243360E1
1.421189025E1,3.524720306E0,3.463796997E0,2.194167206E1,2.249129866E1
1.422182925E1,2.983146515E0,3.381767578E0,1.907857590E1,1.960427436E1
1.423176825E1,2.277813263E0,2.954705658E0,1.582673813E1,1.626051532E1
1.424170725E1,1.538201294E0,2.245330811E0,1.223271194E1,1.253183208E1
1.425164625E1,9.348060608E-1,1.450184326E0,8.788075104E0,8.955845073E0
1.426158625E1,4.724176025E-1,6.483018494E-1,6.070326691E0,6.123098873E0
1.427152525E1,1.686991882E-1,-1.866618347E-1,4.168681183E0,4.176266857E0
1.428146425E1,-1.071771240E-1,-8.818162537E-1,2.684667206E0,2.827812732E0
1.429140325E1,-4.167333984E-1,-1.393452301E0,1.238225098E0,1.910124978E0
1.430134225E1,-5.450166321E-1,-1.844763794E0,-2.537223816E-1,1.940250404E0
1.431128125E1,-6.893165588E-1,-2.097438354E0,-1.524729309E0,2.683133324E0
1.432122025E1,-8.198451233E-1,-2.067201233E0,-2.623145142E0,3.438947135E0
1.433115925E1,-7.267387390E-1,-1.889820099E0,-3.485052795E0,4.030528773E0
1.434109925E1,-4.478686523E-1,-1.563199310E0,-4.110302582E0,4.420267608E0
1.435103825E1,-1.288819885E-1,-1.179696808E0,-4.697830811E0,4.845400855E0
1.436097725E1,1.959425354E-1,-8.298742676E-1,-5.275629272E0,5.344094778E0
1.437091625E1,5.185217285E-1,-5.550457764E-1,-5.715564423E0,5.765814536E0
1.438085525E1,7.068301392E-1,-3.600013733E-1,-5.984255676E0,6.036598863E0
1.439079425E1,7.117698669E-1,-3.541635132E-1,-6.029611359E0,6.081797536E0
1.440073325E1,5.590873718E-1,-4.899311829E-1,-5.668562164E0,5.717097888E0
1.441067225E1,2.644999695E-1,-6.933581543E-1,-4.915627899E0,4.971328133E0
1.442061225E1,-1.398092651E-1,-9.407936096E-1,-4.122577057E0,4.230872349E0
1.443055125E1,-6.071374512E-1,-1.210832062E0,-3.439248047E0,3.696370827E0
1.444049025E1,-1.058299255E0,-1.432371368E0,-2.771037598E0,3.293984581E0
1.445042925E1,-1.392254791E0,-1.581311646E0,-1.969604187E0,2.884139486E0
1.446036825E1,-1.549278259E0,-1.614542542E0,-1.102906494E0,2.494677029E0
1.447030725E1,-1.487905884E0,-1.554966431E0,-2.002835083E-1,2.161457379E0
1.448024625E1,-1.173110504E0,-1.387165375E0,8.039781189E-1,1.986654688E0
1.449018525E1,-1.036444702E0,-1.229692841E0,1.580862579E0,2.255102791E0
1.450012525E1,-9.412426758E-1,-1.112187195E0,2.109862518E0,2.564062787E0
1.451006425E1,-8.229885864E-1,-9.851014709E-1,2.553988953E0,2.858425212E0
1.452000325E1,-6.412664795E-1,-8.140072632E-1,3.040926361E0,3.212641227E0
1.452994225E1,-4.174818420E-1,-5.700146484E-1,3.538641357E0,3.608488665E0
1.453988125E1,-2.490820312E-1,-3.478765869E-1,3.869752808E0,3.893333632E0
1.454982025E1,-1.591191101E-1,-1.968406677E-1,4.087100830E0,4.094930810E0
1.455975925E1,-1.225950623E-1,3.592529297E-2,4.281995544E0,4.283900795E0
1.456969825E1,-6.496490479E-2,2.547702026E-1,4.563110962E0,4.570679375E0
1.457963825E1,4.610412598E-2,5.269042969E-1,4.849764862E0,4.878521594E0
1.458957725E1,6.301895142E-2,8.852590942E-1,4.665647736E0,4.749307723E0
1.459951625E1,-9.654922485E-2,1.048419800E0,4.358935547E0,4.484286446E0
1.460945525E1,-3.553610229E-1,1.133293304E0,4.313130798E0,4.473671027E0
1.461939425E1,-7.339237976E-1,1.449884949E0,4.715943146E0,4.988078814E0
1.462933325E1,-1.068178711E0,2.016157379E0,6.034401398E0,6.451348430E0
1.463927225E1,-1.297501831E0,2.597997437E0,8.265362091E0,8.760668478E0
1.464921125E1,-4.996609497E-1,3.107537842E0,1.091066116E1,1.135557042E1
1.465915125E1,1.807341614E0,3.082090759E0,1.436218369E1,1.479993538E1
1.466909025E1,4.883594513E0,2.659818878E0,1.898352356E1,1.978126130E1
1.467902925E1,8.063581696E0,1.697320404E0,2.501508087E1,2.633735973E1
1.468896825E1,9.694589996E0,-1.763333130E-1,3.223067596E1,3.365757926E1
1.469890725E1,8.658145294E0,-2.108215942E0,4.076921997E1,4.173173075E1
1.470884625E1,6.296955414E0,-3.377127228E0,4.742632645E1,4.796157917E1
1.471878525E1,3.852089539E0,-3.354673920E0,4.803615829E1,4.830698640E1
1.472872425E1,2.637515259E0,-2.149829407E0,4.283806778E1,4.297299506E1
1.473866425E1,2.957998810E0,-7.095245361E-1,3.667867630E1,3.680459859E1
1.474860325E1,3.239712982E0,7.981402588E-1,3.215433472E1,3.232698577E1
1.475854225E1,2.848726044E0,1.907782745E0,2.864847519E1,2.885290290E1
1.476848125E1,2.120789795E0,2.624492340E0,2.602263565E1,2.624048924E1
1.477842025E1,1.233734436E0,2.786156158E0,2.406859909E1,2.426071369E1
1.478835925E1,4.288581848E-1,2.600542145E0,2.239343262E1,2.254800575E1
1.479829825E1,-1.404080200E-1,2.310744781E0,2.074431198E1,2.087308639E1
1.480823725E1,-6.569837952E-1,1.764081573E0,1.898112854E1,1.907424578E1
1.481817725E1,-1.078656921E0,1.070424042E0,1.706481354E1,1.713234279E1
1.482811625E1,-1.483265533E0,3.650907898E-1,1.508278519E1,1.515993987E1
1.483805525E1,-1.741628265E0,-3.854484558E-1,1.294957123E1,1.307184893E1
1.484799425E1,-1.889520721E0,-1.080752563E0,1.099673218E1,1.121010407E1
1.485793325E1,-1.933229828E0,-1.547931061E0,9.250912628E0,9.576682755E0
1.486787225E1,-1.799857178E0,-1.882934418E0,7.310797119E0,7.760971743E0
1.487781125E1,-1.520388336E0,-1.953587494E0,5.437592468E0,5.974570833E0
1.488775025E1,-1.213975525E0,-1.892364807E0,3.676354980E0,4.309334877E0
1.489769025E1,-1.142723694E0,-1.858086090E0,1.844913483E0,2.856922666E0
1.490762925E1,-1.104403381E0,-1.811233521E0,5.553451538E-2,2.122111632E0
1.491756825E1,-9.744735718E-1,-1.610650635E0,-1.265169067E0,2.268137337E0
1.492750725E1,-7.253915405E-1,-1.364412689E0,-2.057920532E0,2.573490196E0
1.493744625E1,-4.321513367E-1,-1.136137390E0,-2.550845490E0,2.825663755E0
1.494738525E1,-2.589614868E-1,-9.089099121E-1,-3.117566986E0,3.257668214E0
1.495732425E1,-1.631607056E-1,-5.881269836E-1,-3.831282806E0,3.879593111E0
1.496726325E1,9.520202637E-2,-2.782713318E-1,-4.469106445E0,4.478773357E0
1.497720325E1,6.547384644E-1,6.436614990E-3,-4.774920502E0,4.819604723E0
1.498714225E1,1.343156891E0,4.358935547E-1,-4.637506256E0,4.847735337E0
1.499708125E1,1.948348389E0,8.521778870E-1,-4.222868500E0,4.728095490E0
1.500702025E1,2.328557739E0,1.066382446E0,-3.697012024E0,4.497471575E0
1.501695925E1,2.435884552E0,1.046623535E0,-3.096311188E0,4.076284748E0
1.502689825E1,2.327360229E0,8.577163696E-1,-2.250270538E0,3.349029786E0
1.503683725E1,2.080673218E0,6.215075684E-1,-1.138233032E0,2.451743692E0
1.504677625E1,1.909579010E0,3.712280273E-1,-7.469467163E-2,1.946761808E0
1.505671625E1,1.755249939E0,1.944456482E-1,8.053253174E-1,1.940943154E0
1.506665525E1,1.516646118E0,3.682342529E-2,1.502425690E0,2.135147387E0
1.507659425E1,1.141526184E0,-6.047424316E-2,2.015109558E0,2.316766215E0
1.508653325E1,6.438111877E-1,-1.405577087E-1,2.214345245E0,2.310319065E0
1.509647225E1,1.969903564E-1,-1.936972046E-1,2.136806488E0,2.154591788E0
1.510641125E1,-2.004331970E-1,-2.005828857E-1,1.896406403E0,1.917489036E0
1.511635025E1,-4.314028931E-1,-7.394622803E-2,1.722617798E0,1.777354376E0
1.512628925E1,-4.665797424E-1,1.713935852E-1,1.806293793E0,1.873437931E0
1.513622925E1,-2.219883728E-1,5.080435181E-1,2.262694702E0,2.329629663E0
1.514616825E1,1.053808594E-1,8.461903381E-1,2.985092468E0,3.104500001E0
1.515610725E1,1.049317932E-1,1.046024780E0,3.753294983E0,3.897743161E0
1.516604625E1,-3.376977539E-1,1.197659454E0,4.482279053E0,4.651801097E0
1.517598525E1,-9.057664490E-1,1.375339966E0,5.540129242E0,5.779706299E0
1.518592425E1,-1.430575104E0,1.913171539E0,7.072193298E0,7.464763125E0
1.519586325E1,-1.275048523E0,2.805466003E0,8.454418945E0,8.998532543E0
1.520580225E1,-1.035247192E0,4.065246277E0,9.863438873E0,1.071846026E1
1.521574225E1,-9.675878906E-1,5.469326477E0,1.195414124E1,1.318147378E1
1.522568125E1,-8.704399109E-1,6.363866272E0,1.445618820E1,1.581890758E1
1.523562025E1,1.411564636E-1,6.707102509E0,1.716226089E1,1.842683772E1
1.524555925E1,2.258503418E0,7.151079254E0,2.053115524E1,2.185788434E1
1.525549825E1,4.515959015E0,7.732170868E0,2.420242081E1,2.580576535E1
1.526543725E1,6.594386902E0,7.776029663E0,2.800511307E1,2.980333763E1
1.527537625E1,7.288942566E0,6.998696136E0,3.174613358E1,3.331557336E1
1.528531525E1,4.896617432E0,4.981790314E0,3.496503983E1,3.565598277E1
1.529525525E1,1.213975525E0,2.487377472E0,3.684572891E1,3.694954022E1
1.530519425E1,-1.130598907E0,1.137185211E0,3.689587463E1,3.693070550E1
1.531513325E1,-1.293909302E0,1.395997009E0,3.593352585E1,3.598390319E1
1.532507225E1,-1.694476318E-1,2.498155060E0,3.329690872E1,3.339092125E1
1.533501125E1,8.436456299E-1,3.566932526E0,2.931249435E1,2.954076964E1
1.534495025E1,1.324894867E0,4.345762939E0,2.553105789E1,2.593214066E1
1.535488925E1,9.324110413E-1,4.639601898E0,2.207100311E1,2.257264882E1
1.536482925E1,1.076261902E-1,4.316723328E0,1.907842621E1,1.956098234E1
1.537476825E1,-9.463320923E-1,3.605851593E0,1.647294434E1,1.688951169E1
1.538470725E1,-1.601070557E0,2.747686157E0,1.414753006E1,1.450054526E1
1.539464625E1,-1.948947144E0,1.878892822E0,1.208496918E1,1.238447065E1
1.540458525E1,-2.108215942E0,1.055006104E0,1.007180557E1,1.034402629E1
1.541452425E1,-2.179467773E0,2.170486450E-1,8.197403412E0,8.484963912E0
1.542446325E1,-2.181563416E0,-5.243595886E-1,6.756350098E0,7.119159961E0
1.543440225E1,-1.860181732E0,-1.084943848E0,5.513334961E0,5.918973021E0
1.544434225E1,-1.207389221E0,-1.268162842E0,4.548142090E0,4.873563603E0
1.545428125E1,-4.523593140E-1,-1.083147583E0,3.705095215E0,3.886588245E0
1.546422025E1,1.302291870E-1,-8.901988220E-1,2.710114288E0,2.855544263E0
1.547415925E1,2.712359619E-1,-8.162525940E-1,1.666634216E0,1.875501761E0
1.548409825E1,2.116598511E-1,-7.562274170E-1,7.114704895E-1,1.059655631E0
1.549403725E1,2.312690735E-1,-6.288423157E-1,1.119671631E-1,6.793119224E-1
1.550397625E1,3.758683777E-1,-4.020639038E-1,-2.574645996E-2,5.509948278E-1
1.551391542E1,5.105882263E-1,-2.163002014E-1,-5.598358154E-2,5.573331817E-1
1.552385542E1,6.057902527E-1,-4.131408691E-2,-2.559677124E-1,6.589447274E-1
1.553379442E1,7.620652771E-1,2.016307068E-1,-3.775149536E-1,8.740228651E-1
1.554373342E1,8.535250854E-1,3.851490784E-1,-2.977308655E-1,9.825927703E-1
1.555367242E1,7.964936829E-1,4.884342957E-1,-2.062710571E-1,9.568270466E-1
1.556361142E1,6.065386963E-1,5.602848816E-1,-2.038760376E-1,8.505138314E-1
1.557355042E1,4.019142151E-1,5.171745300E-1,-2.383044434E-1,6.969889085E-1
1.558348942E1,2.887495422E-1,4.246669006E-1,-9.684860229E-2,5.225877213E-1
1.559342842E1,3.345542908E-1,4.647834778E-1,2.137554932E-1,6.112623541E-1
1.560336842E1,5.390290833E-1,5.405259705E-1,5.191204834E-1,9.231504502E-1
1.561330742E1,7.114704895E-1,5.812413025E-1,7.414082336E-1,1.180558291E0
1.562324642E1,6.800358582E-1,5.019062805E-1,7.932005310E-1,1.159105588E0
1.563318542E1,3.486250305E-1,2.986289978E-1,1.000669098E0,1.100934755E0
1.564312442E1,-3.682342529E-2,1.233435059E-1,1.565594330E0,1.570877204E0
1.565306342E1,-4.020639038E-1,-7.499404907E-2,2.201172638E0,2.238848023E0
1.566300242E1,-6.860234070E-1,-2.993774414E-1,2.473007355E0,2.583799594E0
1.567294142E1,-8.469387817E-1,-4.092489624E-1,2.385140076E0,2.563919498E0
1.568288142E1,-7.628137207E-1,-3.550616455E-1,2.166295166E0,2.323959615E0
1.569282042E1,-4.441264343E-1,-1.555265808E-1,2.132016449E0,2.183330242E0
1.570275942E1,-9.160949707E-2,1.558259583E-1,2.189197540E0,2.196647423E0
1.571269842E1,2.165995789E-1,4.480183411E-1,2.352657623E0,2.404710732E0
1.572263742E1,5.004093933E-1,7.011419678E-1,2.533481598E0,2.675918277E0
1.573257642E1,6.932084656E-1,1.079255676E0,2.442171478E0,2.758538077E0
1.574251542E1,6.429130554E-1,1.424437866E0,2.644400940E0,3.071679795E0
1.575245542E1,4.056564331E-1,1.382075958E0,3.889811096E0,4.147929780E0
1.576239442E1,3.635939026E-1,1.301543427E0,6.192173309E0,6.337919699E0
1.577233342E1,3.857478333E-1,1.341210938E0,8.879834290E0,8.988832248E0
1.578227242E1,-2.191442871E-1,1.768272858E0,1.139849670E1,1.153692074E1
1.579221142E1,-4.785548401E-1,2.830314331E0,1.325119400E1,1.355853371E1
1.580215042E1,-2.131567383E-1,4.319118347E0,1.384470978E1,1.450435134E1
1.581208942E1,1.830693054E-1,5.665568390E0,1.439736053E1,1.547307888E1
1.582202842E1,1.009800110E0,6.540199585E0,1.636995850E1,1.765699431E1
1.583196842E1,2.016456757E0,6.884483643E0,1.966266129E1,2.093041953E1
1.584190742E1,2.286345520E0,6.658603363E0,2.376068939E1,2.478174197E1
1.585184642E1,2.088157654E0,5.968837738E0,2.759331940E1,2.830863299E1
1.586178542E1,9.812095642E-1,5.075495453E0,3.091895370E1,3.134812793E1
1.587172442E1,-6.535409546E-1,4.293371887E0,3.318494156E1,3.346790260E1
1.588166342E1,-2.095342712E0,3.823948059E0,3.400613388E1,3.428454727E1
1.589160242E1,-2.398312683E0,3.959416351E0,3.345303406E1,3.377179843E1
1.590154242E1,-1.393601990E0,4.599185944E0,3.234009842E1,3.269520766E1
1.591148142E1,2.504292297E-1,5.092110901E0,3.114722900E1,3.156172021E1
1.592142042E1,1.741777954E0,5.313500519E0,2.996858002E1,3.048578138E1
1.593135942E1,2.388433228E0,5.048551483E0,2.839595032E1,2.893998065E1
1.594129842E1,2.061513062E0,4.351750488E0,2.616992935E1,2.660926099E1
1.595123742E1,1.090182953E0,3.463647308E0,2.315310287E1,2.343611581E1
1.596117642E1,1.845661926E-1,2.558479614E0,1.964993774E1,1.981665804E1
1.597111542E1,-4.171824646E-1,1.838626556E0,1.630319733E1,1.641185035E1
1.598105542E1,-7.182064819E-1,1.272354126E0,1.331196762E1,1.339190754E1
1.599099442E1,-7.777825928E-1,7.993377686E-1,1.100032471E1,1.105671878E1
1.600093342E1,-6.815327454E-1,2.665956116E-1,9.243577881E0,9.272501935E0
1.601087242E1,-4.201762390E-1,-1.191522217E-1,7.868537292E0,7.880648733E0
1.602081142E1,-2.287243652E-1,-4.147874451E-1,6.281537476E0,6.299371121E0
1.603075042E1,-1.148112488E-1,-7.897576904E-1,4.415517883E0,4.487058837E0
1.604068942E1,-1.814227295E-1,-1.164129181E0,2.316283264E0,2.598707201E0
1.605062942E1,-3.673361206E-1,-1.405726776E0,4.044589233E-1,1.508174597E0
1.606056842E1,-5.972579956E-1,-1.418150940E0,-1.193318481E0,1.947274557E0
1.607050742E1,-7.285350037E-1,-1.181193695E0,-2.382745056E0,2.757436454E0
1.608044642E1,-4.685256958E-1,-7.517367554E-1,-3.079695740E0,3.204551502E0
1.609038542E1,1.050814819E-1,-2.591111755E-1,-3.303630066E0,3.315441499E0
1.610032442E1,4.346960449E-1,8.981323242E-4,-3.274141388E0,3.302871975E0
1.611026342E1,5.911207581E-1,6.481521606E-2,-3.042273560E0,3.099847282E0
1.612020242E1,7.096742249E-1,8.607101440E-2,-2.865042114E0,2.952881989E0
1.613014242E1,8.994795227E-1,1.034349060E-1,-2.631078644E0,2.782505529E0
1.614008142E1,9.720785522E-1,1.624122620E-1,-2.049388275E0,2.274050738E0
1.615002042E1,9.201365662E-1,1.290316772E-1,-1.334025879E0,1.625707698E0
1.615995942E1,7.701484680E-1,-7.454498291E-2,-4.799020386E-1,9.104897495E-1
1.616989842E1,3.661386108E-1,-3.820056152E-1,5.412744141E-1,7.569436992E-1
1.617983742E1,-1.067280579E-1,-7.753875732E-1,1.635948029E0,1.813544242E0
1.618977642E1,-4.137396240E-1,-1.020577698E0,2.566263428E0,2.792573597E0
1.619971542E1,-5.539979553E-1,-1.065933380E0,3.179388428E0,3.398770142E0
1.620965542E1,-7.426057434E-1,-1.073417816E0,3.101101227E0,3.364597735E0
1.621959442E1,-9.680369568E-1,-1.001716919E0,2.593506775E0,2.943944586E0
1.622953342E1,-1.109941864E0,-8.831634521E-1,2.293680267E0,2.696834773E0
1.623947242E1,-1.119971008E0,-6.761439514E-1,2.117646332E0,2.489162849E0
1.624941142E1,-9.334588623E-1,-4.096980286E-1,1.782493286E0,2.053406983E0
1.625935042E1,-7.212002563E-1,-7.304809570E-2,1.397493896E0,1.574310968E0
1.626928942E1,-4.632865906E-1,2.685415649E-1,1.133143616E0,1.253301038E0
1.627922942E1,-1.549278259E-1,5.426216125E-1,1.147214355E0,1.278491933E0
1.628916842E1,2.395019531E-2,8.210426331E-1,1.673220520E0,1.863961246E0
1.629910742E1,1.017883301E-1,9.596543884E-1,2.356998596E0,2.546907888E0
1.630904642E1,-7.694000244E-2,9.500743103E-1,2.597548370E0,2.766914978E0
1.631898542E1,-4.263134766E-1,9.300160217E-1,2.869981842E0,3.046878526E0
1.632892442E1,-7.098239136E-1,1.063089294E0,3.506757660E0,3.732473459E0
1.633886342E1,-7.976911926E-1,1.390907593E0,3.830384674E0,4.152442886E0
1.634880242E1,-4.489164734E-1,2.027234344E0,4.296515350E0,4.771923013E0
1.635874242E1,3.975732422E-1,2.950214996E0,6.468049622E0,7.120217617E0
1.636868142E1,1.056952057E0,3.960464172E0,9.520052948E0,1.036502929E1
1.637862042E1,9.367520142E-1,4.915029144E0,1.217433334E1,1.316242410E1
1.638855942E1,7.089257812E-1,5.416486359E0,1.463701218E1,1.562315671E1
1.639849842E1,1.209484863E0,5.379513245E0,1.735176682E1,1.820675226E1
1.640843742E1,2.779869232E0,4.888683929E0,2.050121750E1,2.125857056E1
1.641837642E1,4.256548462E0,4.052223358E0,2.511642014E1,2.579483048E1
1.642831642E1,4.925207977E0,3.295995941E0,3.091730713E1,3.148017063E1
1.643825542E1,5.217250671E0,2.997366943E0,3.665442673E1,3.714499848E1
1.644819442E1,4.145928497E0,2.813698883E0,4.011508026E1,4.042678925E1
1.645813342E1,2.813549194E0,2.425705719E0,3.949941055E1,3.967371348E1
1.646807242E1,2.222278748E0,2.626887360E0,3.630190979E1,3.646460907E1
1.647801142E1,2.467019806E0,3.608096924E0,3.328014359E1,3.356594267E1
1.648795042E1,3.180735626E0,4.554878082E0,3.097972733E1,3.147391775E1
1.649788942E1,3.517235870E0,4.978347473E0,2.849234985E1,2.913707075E1
