"Time (s)","Acceleration x (m/s^2)","Acceleration y (m/s^2)","Acceleration z (m/s^2)","Absolute acceleration (m/s^2)"
-1.805666601E-3,2.187101898E0,-1.406325531E0,7.718399506E0,8.144621363E0
8.134333417E-3,2.402503967E0,-1.297801208E0,6.675218811E0,7.212132796E0
1.807533321E-2,2.118843842E0,-9.442364502E-1,6.520141296E0,6.920500287E0
2.801533323E-2,1.696422272E0,-4.995112610E-1,7.084018707E0,7.301416374E0
3.795633325E-2,1.764081573E0,-2.133064270E-1,8.046517181E0,8.240383619E0
4.789733328E-2,2.274669800E0,-5.089416504E-2,9.246272278E0,9.522093465E0
5.783733330E-2,3.219954071E0,-1.616638184E-2,1.060290115E1,1.108105945E1
6.777833332E-2,3.729195099E0,-2.859054565E-2,1.160177399E1,1.218642167E1
7.771833334E-2,3.207829285E0,-9.460327148E-2,1.191462341E1,1.233926131E1
8.765833336E-2,3.203787689E0,-1.388961639E0,1.137095398E1,1.189504369E1
9.759933339E-2,3.081342316E0,-2.815644836E0,1.052356613E1,1.132112938E1
1.075403334E-1,3.426374817E0,-3.540138245E0,9.758357391E0,1.093152149E1
1.174803334E-1,4.237687683E0,-3.488795013E0,8.819509735E0,1.038813937E1
1.274213332E-1,4.929099884E0,-3.133883057E0,7.986042938E0,9.894146274E0
1.373613332E-1,5.396428070E0,-2.646047516E0,7.809410248E0,9.854435133E0
1.473023333E-1,5.375920715E0,-2.171983337E0,8.086783447E0,9.950582982E0
1.572423333E-1,4.659809875E0,-1.951491852E0,8.395890656E0,9.798628905E0
1.671833333E-1,3.781436462E0,-1.985471191E0,8.931177521E0,9.899863104E0
1.771233333E-1,3.095113678E0,-2.094444580E0,9.498797150E0,1.020752536E1
1.870643334E-1,2.609074402E0,-2.232307892E0,9.946366425E0,1.052238912E1
1.970043334E-1,2.340383148E0,-2.671793976E0,1.057580750E1,1.115632469E1
2.069453334E-1,1.960922241E0,-3.150797882E0,1.078971268E1,1.141011144E1
2.168853334E-1,1.350641327E0,-3.142115936E0,1.025277924E1,1.080817314E1
2.268263332E-1,3.679348755E-1,-2.916684723E0,9.329648895E0,9.781859453E0
2.367663332E-1,1.275048523E0,-2.330952759E0,8.290809174E0,8.706124640E0
2.467073333E-1,2.494562531E0,-1.477727051E0,8.203390961E0,8.700697829E0
2.566473333E-1,2.915936279E0,-1.123713226E0,8.004005585E0,8.592410675E0
2.665883333E-1,2.356100464E0,-8.637039185E-1,8.467292175E0,8.831321002E0
2.765283333E-1,1.848056946E0,-1.228495331E0,9.191935272E0,9.456013394E0
2.864693333E-1,1.181193695E0,-2.498903503E0,9.440119171E0,9.836441797E0
2.964093334E-1,-2.859054565E-2,-3.674109650E0,9.505383453E0,1.019079063E1
3.063503334E-1,-1.327289886E0,-4.491859131E0,9.944719849E0,1.099254064E1
3.162903334E-1,-2.336940308E0,-4.965474243E0,1.058823166E1,1.192593284E1
3.262313334E-1,-2.570155334E0,-4.875211945E0,1.102307739E1,1.232402634E1
3.361713332E-1,-2.166295166E0,-4.443659363E0,1.127530289E1,1.231143365E1
3.461123332E-1,-1.572180634E0,-4.113895111E0,1.126317810E1,1.209359607E1
3.560523333E-1,-8.696914673E-1,-3.886517944E0,1.114881592E1,1.183881250E1
3.659933333E-1,-4.808001709E-1,-3.717070312E0,1.091335556E1,1.153902553E1
3.759333333E-1,-7.261399841E-1,-3.349285126E0,1.061278061E1,1.115240344E1
3.858743333E-1,-7.289840698E-2,-2.948269043E0,1.036444702E1,1.077586964E1
3.958143333E-1,2.159559174E0,-2.523751831E0,9.847272491E0,1.039239119E1
4.057553334E-1,2.454895020E0,-2.689756622E0,9.084309082E0,9.787030793E0
4.156953334E-1,3.679348755E-1,-3.573818207E0,8.619675293E0,9.338434280E0
4.256363334E-1,-7.740403748E-1,-4.274511108E0,8.288414154E0,9.357798507E0
4.355763334E-1,-8.482859802E-1,-4.461622009E0,8.393645325E0,9.543528797E0
4.455173332E-1,-1.238674164E0,-4.276606750E0,8.743467865E0,9.811824972E0
4.554573332E-1,-1.936972046E0,-4.264481964E0,8.398884430E0,9.616596425E0
4.653983333E-1,-3.323838043E0,-5.366939392E0,7.700736237E0,9.957573819E0
4.753383333E-1,-4.205504608E0,-5.900130615E0,7.592062225E0,1.049462811E1
4.852787084E-1,-4.743186493E0,-5.341941376E0,7.547454987E0,1.039221981E1
4.952187084E-1,-5.298082581E0,-4.749623108E0,6.973847809E0,9.963089479E0
5.051597082E-1,-5.650000763E0,-4.382586365E0,5.846691742E0,9.236524032E0
5.150997082E-1,-5.980363770E0,-4.181105347E0,4.764591980E0,8.714799451E0
5.250407082E-1,-6.080804901E0,-4.266727295E0,5.432652740E0,9.202981357E0
5.349807083E-1,-6.410569153E0,-4.348307648E0,6.803202667E0,1.030954620E1
5.449217083E-1,-6.673721924E0,-4.149371338E0,7.253166962E0,1.069412352E1
5.548617083E-1,-6.628815308E0,-4.148772583E0,6.684948578E0,1.028795625E1
5.648027083E-1,-6.538553009E0,-3.819756775E0,6.013145599E0,9.669598610E0
5.747427084E-1,-6.024072876E0,-3.427123260E0,5.866300964E0,9.080094430E0
5.846837084E-1,-5.715265045E0,-3.432661743E0,6.152356110E0,9.071874496E0
5.946237084E-1,-6.372248840E0,-4.033212891E0,5.886808319E0,9.566967842E0
6.045647084E-1,-7.780969391E0,-4.910239105E0,5.559588776E0,1.075002140E1
6.145047082E-1,-8.870254211E0,-5.202730865E0,5.443729706E0,1.163546352E1
6.244457082E-1,-9.149573364E0,-4.935686188E0,5.072052612E0,1.156725588E1
6.343857083E-1,-8.973988495E0,-4.556524658E0,5.092410278E0,1.127949595E1
6.443267083E-1,-8.323441315E0,-4.067341919E0,5.317542114E0,1.068172270E1
6.542667083E-1,-7.607929230E0,-3.613036652E0,4.807852020E0,9.697941125E0
6.642077083E-1,-7.112309875E0,-3.593427429E0,3.830384674E0,8.841352793E0
6.741477083E-1,-6.868466949E0,-3.844305725E0,3.464246063E0,8.599739852E0
6.840887084E-1,-7.040159912E0,-3.921395416E0,3.344046021E0,8.724897557E0
6.940287084E-1,-7.486681366E0,-4.203408966E0,2.528092804E0,8.950435634E0
7.039697084E-1,-8.057294769E0,-4.747078400E0,2.807861023E0,9.764160786E0
7.139097084E-1,-7.918982391E0,-4.781506805E0,3.441942444E0,9.870159940E0
7.238507082E-1,-7.473209381E0,-4.604275360E0,3.576362915E0,9.478321673E0
7.337907082E-1,-6.623426514E0,-4.508773956E0,3.161276093E0,8.613506133E0
7.437317083E-1,-6.066285095E0,-4.481231232E0,2.789449310E0,8.041285697E0
7.536717083E-1,-6.059549103E0,-4.458927612E0,2.962339783E0,8.085519635E0
7.636127083E-1,-6.320606232E0,-4.694986725E0,2.708916779E0,8.326535510E0
7.735527083E-1,-6.644682312E0,-4.719835052E0,1.671873322E0,8.320084516E0
7.834937084E-1,-6.624174957E0,-4.870870972E0,1.434317322E0,8.346397071E0
7.934337084E-1,-7.300917664E0,-5.559289398E0,2.138752441E0,9.422492205E0
8.033747084E-1,-8.276439056E0,-5.588478699E0,1.879491577E0,1.016184167E1
8.133147084E-1,-8.861123199E0,-5.413492584E0,2.025438080E0,1.057959384E1
8.232557082E-1,-9.030870209E0,-5.096152496E0,2.650837555E0,1.070300550E1
8.331957082E-1,-9.220675507E0,-4.752467194E0,3.141966248E0,1.083876160E1
8.431367083E-1,-9.418414307E0,-4.245321808E0,3.583547974E0,1.093485717E1
8.530767083E-1,-9.601333923E0,-3.972588959E0,3.598965912E0,1.099634629E1
8.630177083E-1,-9.676028595E0,-4.041296082E0,3.531905365E0,1.106489760E1
8.729577083E-1,-1.024858795E1,-3.852987671E0,4.262086945E0,1.174923207E1
8.828987083E-1,-9.988129578E0,-3.403472443E0,3.910019073E0,1.125320427E1
8.928387084E-1,-1.027777725E1,-3.065475311E0,3.297792206E0,1.122075209E1
9.027797084E-1,-1.041579025E1,-3.016078033E0,2.949167175E0,1.123757093E1
9.127197084E-1,-1.119821320E1,-3.306474152E0,2.739303589E0,1.199318699E1
9.226607084E-1,-1.223016724E1,-3.596271515E0,2.715952148E0,1.303405369E1
9.326007082E-1,-1.237401810E1,-3.448379059E0,2.477348328E0,1.308223592E1
9.425417082E-1,-1.212254105E1,-2.955154724E0,1.933229828E0,1.262641352E1
9.524817083E-1,-1.207868225E1,-2.453996887E0,1.773961029E0,1.245245371E1
9.624227083E-1,-1.113848740E1,-1.686692505E0,1.936073914E0,1.143062620E1
9.723627083E-1,-9.321266327E0,-5.694158936E-1,1.091829529E0,9.402251439E0
9.823037083E-1,-9.084159393E0,-2.215393066E-2,-1.202000427E-1,9.084981603E0
9.922437083E-1,-7.686066742E0,1.170565796E-1,-1.475930786E-1,7.688374856E0
1.002184708E0,-6.995253296E0,2.894979858E-1,6.339317322E-1,7.029882446E0
1.012124708E0,-6.384972382E0,9.849517822E-2,2.947370911E-1,6.392530295E0
1.022065708E0,-6.038892059E0,-3.092568970E-1,4.912783813E-1,6.066729892E0
1.032005708E0,-5.687422943E0,-6.816824341E-1,1.108145599E0,5.834334353E0
1.041946708E0,-5.345683594E0,-7.473957825E-1,1.982926483E0,5.750385290E0
1.051886708E0,-5.336253204E0,-9.310638428E-1,2.675386505E0,6.041537146E0
1.061827708E0,-5.992189178E0,-1.268312531E0,2.907104645E0,6.779838143E0
1.071767708E0,-6.486611023E0,-1.272653503E0,2.954256592E0,7.240400646E0
1.081708708E0,-7.005132751E0,-1.213975525E0,2.459535370E0,7.522960566E0
1.091648708E0,-7.975115662E0,-1.674867096E0,2.286794586E0,8.463869038E0
1.101589708E0,-9.036408691E0,-1.565893707E0,2.585423584E0,9.528542399E0
1.111529708E0,-8.837472382E0,-1.611698456E0,1.999841309E0,9.203143771E0
1.121470708E0,-8.477471008E0,-1.846260681E0,6.854246521E-1,8.703217805E0
1.131410708E0,-8.580606537E0,-2.026186523E0,3.987707520E-1,8.825602443E0
1.141351708E0,-9.082063751E0,-2.092348938E0,1.257385254E-2,9.319976618E0
1.151291708E0,-9.017697601E0,-2.042951660E0,6.339317322E-1,9.267922688E0
1.161232708E0,-8.563691711E0,-2.067799988E0,1.667981415E0,8.966313318E0
1.171172708E0,-8.972341919E0,-2.568508759E0,2.385289764E0,9.632744366E0
1.181113708E0,-9.571396179E0,-3.354973297E0,2.724185028E0,1.050184054E1
1.191053708E0,-9.830507355E0,-3.954925690E0,2.560275879E0,1.090116162E1
1.200994708E0,-9.924960938E0,-4.256548462E0,2.046693878E0,1.099145169E1
1.210934708E0,-1.042312500E1,-4.187991028E0,1.620081024E0,1.134924958E1
1.220875708E0,-1.059661423E1,-4.002975769E0,1.792971497E0,1.146851319E1
1.230815708E0,-1.005129822E1,-3.793860626E0,2.222428436E0,1.097092350E1
1.240756708E0,-9.081165619E0,-3.495231628E0,2.165995789E0,9.968738681E0
1.250696708E0,-8.351732483E0,-3.211571503E0,1.897753601E0,9.146971942E0
1.260637708E0,-7.243437195E0,-3.072660370E0,1.678609314E0,8.045269006E0
1.270577708E0,-6.615343323E0,-3.232527924E0,1.519190826E0,7.517974782E0
1.280518708E0,-7.662266235E0,-4.099075928E0,9.187893677E-1,8.738244745E0
1.290458708E0,-8.001311188E0,-5.015769653E0,1.455124054E0,9.554910358E0
1.300399708E0,-8.061935120E0,-5.305866394E0,2.779869232E0,1.004363923E1
1.310339708E0,-1.001672012E1,-5.429509277E0,2.962639160E0,1.177248843E1
1.320280708E0,-1.154968231E1,-5.492079163E0,2.214794312E0,1.297934547E1
1.330220708E0,-1.073522598E1,-4.968168640E0,2.447859650E0,1.207972654E1
1.340161708E0,-9.271569672E0,-4.134552155E0,3.373385010E0,1.069748812E1
1.350101708E0,-8.374036102E0,-3.538491669E0,3.805236969E0,9.855213459E0
1.360042708E0,-8.276738434E0,-3.443439331E0,3.696862335E0,9.696827556E0
1.369982708E0,-8.669671326E0,-4.066892853E0,3.461401978E0,1.018254006E1
1.379923708E0,-8.994196472E0,-4.663552094E0,3.517086182E0,1.072446658E1
1.389863708E0,-9.089248810E0,-4.799020386E0,3.666625214E0,1.091279896E1
1.399804708E0,-8.860374756E0,-4.602329407E0,3.372786255E0,1.053866044E1
1.409744708E0,-8.207731934E0,-4.453538818E0,3.036136322E0,9.819317454E0
1.419685708E0,-6.941814423E0,-4.258195038E0,3.481759644E0,8.856842703E0
1.429625708E0,-5.540428619E0,-4.204157410E0,4.827760620E0,8.466319237E0
1.439566708E0,-4.998555450E0,-4.801265717E0,5.708529053E0,8.979143223E0
1.449506708E0,-7.213649139E0,-6.189478912E0,4.547842712E0,1.053704211E1
1.459447708E0,-1.006327332E1,-7.795040131E0,3.391796722E0,1.317332173E1
1.469387708E0,-1.352332809E1,-9.243428192E0,2.856509857E0,1.662771831E1
1.479328792E0,-1.541479477E1,-9.807604980E0,2.759062500E0,1.847748465E1
1.489268792E0,-1.492097168E1,-9.360933838E0,3.619024200E0,1.798220827E1
1.499209792E0,-1.349084564E1,-9.262887726E0,7.281458130E0,1.791155040E1
1.509149792E0,-1.069046906E1,-9.065448303E0,1.036414764E1,1.743227002E1
1.519090792E0,-8.012238464E0,-8.057444458E0,7.093748474E0,1.339550834E1
1.529030792E0,-6.818620605E0,-6.639443207E0,3.813320160E0,1.025266813E1
1.538971792E0,-5.876779175E0,-5.869294739E0,2.958747253E0,8.816991523E0
1.548911792E0,-5.129682770E0,-5.910159760E0,2.758314056E0,8.297706318E0
1.558852792E0,-5.106331329E0,-6.502927094E0,2.552641754E0,8.653245654E0
1.568792792E0,-5.345234528E0,-7.244634705E0,2.182461548E0,9.263876217E0
1.578733792E0,-5.614674225E0,-7.912096710E0,1.761536865E0,9.860469215E0
1.588673792E0,-6.124963074E0,-8.783734131E0,1.774110718E0,1.085433677E1
1.598614792E0,-6.375392303E0,-9.775421906E0,2.906954956E0,1.202725603E1
1.608554792E0,-6.157445526E0,-1.076695999E1,4.626279602E0,1.323797665E1
1.618495792E0,-5.939049683E0,-1.148082550E1,5.094056854E0,1.389356256E1
1.628435792E0,-5.741759949E0,-1.146091690E1,4.254452820E0,1.350632416E1
1.638376792E0,-5.463189240E0,-1.072968750E1,3.517984314E0,1.254387676E1
1.648316792E0,-5.317542114E0,-9.666298828E0,3.472029877E0,1.156583670E1
1.658257792E0,-5.039420471E0,-8.548722839E0,3.671115875E0,1.058080869E1
1.668197792E0,-4.999303894E0,-7.658673706E0,3.748804321E0,9.884424930E0
1.678138792E0,-4.809348907E0,-7.239694977E0,3.461701355E0,9.355554315E0
1.688078792E0,-4.506828003E0,-7.111262054E0,2.929258575E0,8.914151808E0
1.698019792E0,-4.214934998E0,-6.930438080E0,2.510728912E0,8.491195951E0
1.707959792E0,-4.223467255E0,-6.477180634E0,2.292931824E0,8.065301046E0
1.717900792E0,-4.107009430E0,-6.115682373E0,2.158361664E0,7.676432923E0
1.727840792E0,-4.178710327E0,-6.095025330E0,2.355352020E0,7.756199901E0
1.737781792E0,-4.399201813E0,-6.083798676E0,2.858755188E0,8.033558622E0
1.747721792E0,-4.485123138E0,-5.875282288E0,3.238964539E0,8.070078241E0
1.757662792E0,-4.310586090E0,-5.535339203E0,3.116369476E0,7.676776097E0
1.767602792E0,-4.109853516E0,-5.289550323E0,2.716850281E0,7.228520872E0
1.777543792E0,-3.889362030E0,-5.242548065E0,2.374063110E0,6.946050883E0
1.787483792E0,-3.656446381E0,-5.174290009E0,2.223476257E0,6.714664839E0
1.797424792E0,-3.631747742E0,-5.205874329E0,2.370470581E0,6.775680775E0
1.807364792E0,-3.881727905E0,-5.299280090E0,2.772085419E0,7.129841413E0
1.817305792E0,-3.872147827E0,-5.311404877E0,3.270997925E0,7.341932851E0
1.827245792E0,-3.186124420E0,-5.361550598E0,3.303779755E0,7.057802371E0
1.837186792E0,-2.463427277E0,-5.509592743E0,2.904410248E0,6.697737307E0
1.847126792E0,-2.154020691E0,-5.562582550E0,2.635269928E0,6.521255811E0
1.857067792E0,-2.067500610E0,-5.413043518E0,2.898273010E0,6.478856793E0
1.867007792E0,-2.314187622E0,-5.237758026E0,3.451223145E0,6.685844351E0
1.876948792E0,-2.920426941E0,-5.115162964E0,3.518882446E0,6.861218502E0
1.886888792E0,-3.262166290E0,-5.111420746E0,3.219355316E0,6.865318609E0
1.896829792E0,-3.189716949E0,-5.069058838E0,3.149300995E0,6.766664502E0
1.906769792E0,-3.068469086E0,-4.831353149E0,3.505560150E0,6.711663561E0
1.916710792E0,-3.019221497E0,-4.669240265E0,4.193080444E0,6.964152979E0
1.926650792E0,-3.237916718E0,-4.779261475E0,4.946164398E0,7.601972584E0
1.936591792E0,-4.002676392E0,-5.102140045E0,5.508993988E0,8.508952115E0
1.946531792E0,-5.037773895E0,-5.796246643E0,5.741310883E0,9.588445735E0
1.956472792E0,-6.062093811E0,-6.695576477E0,5.602100372E0,1.062841730E1
1.966412792E0,-7.188651123E0,-7.526947632E0,6.929689636E0,1.250408909E1
1.976353792E0,-7.834258575E0,-7.893385620E0,8.439599762E0,1.396094510E1
1.986293792E0,-8.379724274E0,-8.111781464E0,9.437125397E0,1.500267020E1
1.996233792E0,-9.296417999E0,-8.091723175E0,9.875413971E0,1.579313688E1
2.006174792E0,-9.321266327E0,-7.605234833E0,9.171278229E0,1.512739063E1
2.016114792E0,-9.121282196E0,-7.231911163E0,8.123157806E0,1.419450671E1
2.026055792E0,-8.680748291E0,-7.409292297E0,7.274871826E0,1.353428104E1
2.035995792E0,-7.890691223E0,-7.764503632E0,6.971752167E0,1.308265466E1
2.045936792E0,-7.349416809E0,-8.275690613E0,7.042704620E0,1.311871453E1
2.055876792E0,-6.716981964E0,-8.684490509E0,7.176226959E0,1.311626683E1
2.065817792E0,-6.085594940E0,-8.471483459E0,7.230863342E0,1.269196133E1
2.075757792E0,-5.300776978E0,-7.641309814E0,7.268435211E0,1.180330473E1
2.085698792E0,-4.914131012E0,-7.270381165E0,7.446415100E0,1.150896276E1
2.095638792E0,-5.090164948E0,-7.356152802E0,7.151827698E0,1.145300845E1
2.105579792E0,-5.367687836E0,-7.902816010E0,6.530020752E0,1.157185139E1
2.115519792E0,-5.928122406E0,-7.928712158E0,6.185886383E0,1.167357281E1
2.125460792E0,-7.037914581E0,-8.627758484E0,6.041586456E0,1.266772375E1
2.135400792E0,-8.002059631E0,-9.265731812E0,5.180427246E0,1.329374179E1
2.145341792E0,-8.785680084E0,-9.039701843E0,3.264710999E0,1.302162516E1
2.155281792E0,-8.443042603E0,-8.326734467E0,1.662143555E0,1.197423052E1
2.165222792E0,-7.259004822E0,-7.459737396E0,1.080902252E0,1.046466353E1
2.175162792E0,-6.023923187E0,-6.673272858E0,9.786648560E-1,9.043119268E0
2.185103792E0,-5.141807556E0,-6.580615540E0,1.460363159E0,8.477932907E0
2.195043792E0,-4.244273987E0,-6.711443481E0,2.917133789E0,8.459728413E0
2.204984792E0,-3.469485168E0,-6.498137054E0,4.305496674E0,8.532315871E0
2.214924792E0,-3.453618164E0,-6.496640167E0,4.001478882E0,8.375299704E0
2.224865792E0,-3.651806030E0,-6.652915192E0,2.553988953E0,8.007485710E0
2.234805792E0,-3.994593201E0,-6.805148621E0,1.176703033E0,7.978186048E0
2.244746792E0,-4.249662781E0,-7.041207733E0,2.198927307E-1,8.227186208E0
2.254686792E0,-4.551584930E0,-7.371421051E0,-3.797602844E-1,8.671735211E0
2.264627792E0,-5.010530548E0,-7.470664673E0,-4.894821167E-1,9.008653605E0
2.274567792E0,-5.469775543E0,-7.466024323E0,-4.357438660E-1,9.265518679E0
2.284508792E0,-5.564827881E0,-7.470365295E0,-5.245092773E-1,9.329993407E0
2.294448792E0,-5.769901428E0,-7.484585724E0,-6.550378418E-1,9.473112505E0
2.304389792E0,-6.527925110E0,-7.337741089E0,-6.289920044E-1,9.841335350E0
2.314329792E0,-7.164850616E0,-7.234006805E0,-5.740562439E-1,1.019781738E1
2.324270792E0,-7.355254669E0,-7.392078094E0,-4.424798584E-1,1.043735494E1
2.334210792E0,-7.033124542E0,-7.862699432E0,5.987548828E-2,1.054942976E1
2.344151792E0,-5.820496216E0,-8.810528412E0,1.155746613E0,1.062258619E1
2.354091792E0,-4.708458710E0,-9.378447418E0,2.311942291E0,1.074569386E1
2.364032792E0,-4.503235474E0,-8.848249969E0,2.845432892E0,1.032797878E1
2.373972792E0,-4.431085510E0,-8.180937653E0,2.867886200E0,9.735863132E0
2.383913792E0,-3.904330902E0,-8.190218353E0,2.694696350E0,9.464928150E0
2.393853792E0,-3.973786469E0,-8.212222595E0,2.212848358E0,9.387666201E0
2.403794792E0,-4.670288086E0,-8.087232513E0,1.769919434E0,9.505132052E0
2.413734792E0,-5.438789978E0,-8.039182434E0,1.478176117E0,9.818039278E0
2.423675792E0,-5.620362396E0,-8.089178467E0,1.149160309E0,9.916846835E0
2.433615792E0,-5.695805511E0,-8.025710449E0,8.520281982E-1,9.878268102E0
2.443556792E0,-5.660179596E0,-7.703879700E0,6.730004883E-1,9.583335805E0
2.453496792E0,-5.664520569E0,-7.342381439E0,8.175997925E-1,9.309448313E0
2.463437792E0,-5.935008087E0,-6.919810181E0,1.019380188E0,9.173179923E0
2.473377792E0,-6.350394287E0,-6.618636475E0,1.078806610E0,9.235674317E0
2.483319208E0,-6.604715424E0,-6.539151764E0,1.012045441E0,9.349171492E0
2.493259208E0,-6.716383209E0,-6.442003784E0,7.930508423E-1,9.340136284E0
2.503200208E0,-6.614594879E0,-6.462810516E0,7.649093628E-1,9.279324950E0
2.513140208E0,-5.955814819E0,-5.931116180E0,1.144220581E0,8.482871568E0
2.523081208E0,-5.392835541E0,-4.933740234E0,1.575773163E0,7.477133738E0
2.533021208E0,-5.790109406E0,-4.538262634E0,2.163600769E0,7.668269880E0
2.542962208E0,-6.707401886E0,-5.108726349E0,2.298170929E0,8.738988190E0
2.552902208E0,-6.878346405E0,-5.549110565E0,1.890568542E0,9.037617316E0
2.562843208E0,-6.233038330E0,-5.397475891E0,1.133143616E0,8.322711534E0
2.572783208E0,-6.011798401E0,-6.071973267E0,8.241860962E-1,8.584279940E0
2.582724208E0,-5.870043182E0,-6.931635590E0,7.647596741E-1,9.115362652E0
2.592664208E0,-5.928870850E0,-7.763755188E0,1.108594666E0,9.831397983E0
2.602605208E0,-5.736071777E0,-8.397686920E0,1.269510040E0,1.024867410E1
2.612545208E0,-5.415288849E0,-8.525970154E0,1.257085876E0,1.017829972E1
2.622486208E0,-5.107229462E0,-8.441994781E0,1.127455444E0,9.930872290E0
2.632426208E0,-4.786895599E0,-8.250542908E0,1.224902802E0,9.616975337E0
2.642367208E0,-4.606969757E0,-8.181237030E0,1.444346466E0,9.499628751E0
2.652307208E0,-4.497996368E0,-8.269253998E0,1.788630524E0,9.581843881E0
2.662248208E0,-4.667294312E0,-8.616382141E0,2.009870453E0,1.000326230E1
2.672188208E0,-5.045108643E0,-9.020092621E0,1.952539673E0,1.051796574E1
2.682129208E0,-5.397026825E0,-9.124874725E0,1.492845612E0,1.070606489E1
2.692069208E0,-5.551355896E0,-9.045390015E0,9.650431824E-1,1.065682604E1
2.702010208E0,-5.683830414E0,-8.576415253E0,8.893006897E-1,1.032723015E1
2.711950208E0,-4.827610931E0,-9.132957916E0,9.930349731E-1,1.037799914E1
2.721891208E0,-4.924609222E0,-8.978329468E0,1.145118713E0,1.030405129E1
2.731831208E0,-5.613177338E0,-8.825197906E0,1.170116730E0,1.052430763E1
2.741772208E0,-6.219416656E0,-8.762178955E0,1.195713501E0,1.081141315E1
2.751712208E0,-6.574328613E0,-8.744665375E0,1.197360077E0,1.100566401E1
2.761653208E0,-6.996450806E0,-8.782087555E0,1.335822144E0,1.130751107E1
2.771593208E0,-7.118896179E0,-8.255931702E0,1.361718292E0,1.098605333E1
2.781533208E0,-7.298822021E0,-8.055498505E0,1.524280243E0,1.097667023E1
2.791474208E0,-7.425458679E0,-8.195158081E0,2.062261505E0,1.124948777E1
2.801414208E0,-7.317982178E0,-8.229586487E0,2.396666107E0,1.127044655E1
2.811355208E0,-6.883435822E0,-8.170609131E0,2.456391907E0,1.096240865E1
2.821295208E0,-6.309379578E0,-7.932903442E0,2.454595642E0,1.042901086E1
2.831236208E0,-6.007008362E0,-7.600145416E0,2.572999420E0,1.002330713E1
2.841176208E0,-5.924380188E0,-7.270231476E0,2.782563629E0,9.782494911E0
2.851117208E0,-6.292614441E0,-7.588020630E0,2.974614258E0,1.029676568E1
2.861057208E0,-6.693780212E0,-7.788753204E0,3.168610840E0,1.074762600E1
2.870998208E0,-7.102879486E0,-7.831414490E0,3.044518890E0,1.100231999E1
2.880938208E0,-7.647447052E0,-8.410709839E0,2.983894958E0,1.175274928E1
2.890879208E0,-8.040080566E0,-8.904233551E0,3.126248932E0,1.239764909E1
2.900819208E0,-8.202941895E0,-9.245374146E0,3.354823608E0,1.280703089E1
2.910760208E0,-8.275989990E0,-9.535919952E0,3.572171631E0,1.312197355E1
2.920700208E0,-8.255782013E0,-9.715097351E0,3.912114716E0,1.333587998E1
2.930641208E0,-8.070916443E0,-9.875413971E0,4.478985901E0,1.351757404E1
2.940581208E0,-7.801925812E0,-9.957593079E0,4.865781555E0,1.355358021E1
2.950522208E0,-7.616162109E0,-1.001986359E1,4.726271667E0,1.344400370E1
2.960462208E0,-7.438930664E0,-9.984387360E0,4.088298340E0,1.310495569E1
2.970403208E0,-6.823260956E0,-9.637558594E0,4.089944916E0,1.249668257E1
2.980343208E0,-5.742508392E0,-9.039402466E0,4.041296082E0,1.144636508E1
2.990284208E0,-4.713997192E0,-8.530161438E0,3.366349640E0,1.031104910E1
3.000224208E0,-4.426894226E0,-8.304430847E0,2.140399017E0,9.651024409E0
3.010165208E0,-4.072131958E0,-8.227640533E0,1.266366577E0,9.267146904E0
3.020105208E0,-3.534300385E0,-8.104446716E0,1.012195129E0,8.899318781E0
3.030046208E0,-3.190615082E0,-8.474477234E0,9.978250122E-1,9.110018866E0
3.039986208E0,-3.291654968E0,-9.158105621E0,1.029109955E0,9.785957199E0
3.049927208E0,-3.849993896E0,-1.009306137E1,9.035211182E-1,1.084014258E1
3.059867208E0,-4.343218231E0,-1.066651886E1,1.035097504E0,1.156328656E1
3.069808208E0,-4.352199554E0,-1.106049957E1,1.854942627E0,1.202984222E1
3.079748208E0,-3.941902771E0,-1.127260849E1,2.982248383E0,1.230870038E1
3.089689208E0,-3.259771271E0,-1.117426300E1,3.718567200E0,1.221957464E1
3.099629208E0,-2.829565887E0,-1.129940277E1,3.856280823E0,1.227003863E1
3.109570208E0,-2.525847473E0,-1.129625931E1,3.582500153E0,1.211691739E1
3.119510208E0,-2.543660431E0,-1.117845428E1,3.317251740E0,1.193449654E1
3.129451208E0,-2.999911652E0,-1.134430939E1,3.236569519E0,1.217243639E1
3.139391208E0,-3.653751984E0,-1.152618118E1,3.026107178E0,1.246435240E1
3.149332208E0,-3.842958527E0,-1.070379135E1,2.574196930E0,1.166044465E1
3.159272208E0,-3.720962219E0,-9.676178284E0,2.006577301E0,1.055937207E1
3.169213208E0,-3.116519165E0,-8.748407593E0,1.295855255E0,9.376916762E0
3.179153208E0,-2.307301941E0,-7.514224091E0,8.958869934E-1,7.911372791E0
3.189094208E0,-1.953587494E0,-6.413413239E0,7.322772217E-1,6.744227413E0
3.199034208E0,-1.863025818E0,-5.510790253E0,6.271957397E-1,5.850901546E0
3.208975208E0,-2.281106415E0,-4.771327972E0,5.664221191E-1,5.318820463E0
3.218915208E0,-2.978805542E0,-4.602628784E0,7.815248108E-1,5.537892669E0
3.228856208E0,-3.961661682E0,-4.742288361E0,1.259331207E0,6.306344208E0
3.238796208E0,-5.151537323E0,-5.059778137E0,1.484463043E0,7.371792327E0
3.248737208E0,-6.096821594E0,-5.479056244E0,1.498833160E0,8.332934160E0
3.258677208E0,-6.158493347E0,-5.371579742E0,2.168989563E0,8.454905379E0
3.268617208E0,-5.511389008E0,-6.004613342E0,2.785856781E0,8.613465516E0
3.278558208E0,-4.338877258E0,-6.271658020E0,2.799029388E0,8.123676243E0
3.288498208E0,-3.208727417E0,-6.057902527E0,2.425855408E0,7.271787203E0
3.298439208E0,-2.140997772E0,-5.571563873E0,1.919009399E0,6.269672442E0
3.308379208E0,-1.296903076E0,-5.108277283E0,1.358125763E0,5.442514123E0
3.318320208E0,-6.719526672E-1,-4.815635834E0,9.485774231E-1,4.953954784E0
3.328260208E0,-2.698887634E-1,-4.538562012E0,6.406677246E-1,4.591496511E0
3.338201208E0,-1.930984497E-2,-4.580474854E0,1.848655701E-1,4.584244543E0
3.348141208E0,-2.888992310E-2,-4.940326538E0,-5.194198608E-2,4.940684052E0
3.358082208E0,-2.767744446E-1,-5.466033325E0,2.013313293E-1,5.476737962E0
3.368022208E0,-6.635700989E-1,-5.878276062E0,7.662565613E-1,5.965031756E0
3.377963208E0,-1.030756531E0,-6.370452576E0,1.474134521E0,6.619531527E0
3.387903208E0,-1.234931946E0,-6.645580444E0,2.175426178E0,7.100793998E0
3.397844208E0,-1.329535217E0,-7.010970612E0,2.773582306E0,7.655986652E0
3.407784208E0,-1.359622650E0,-7.565717010E0,3.101400604E0,8.288988680E0
3.417725208E0,-1.526675262E0,-8.133186951E0,3.244353333E0,8.888492329E0
3.427665208E0,-1.225052490E0,-8.859027557E0,3.926185455E0,9.767192795E0
3.437606208E0,-9.018745422E-1,-9.461674347E0,5.288203125E0,1.087666086E1
3.447546208E0,-1.740430756E0,-1.009560608E1,7.145091705E0,1.249010395E1
3.457487208E0,-2.833008728E0,-1.091709778E1,9.032666473E0,1.444984519E1
3.467427208E0,-4.258195038E0,-1.165626068E1,9.920919342E0,1.588789724E1
3.477368208E0,-5.763764191E0,-1.237267090E1,1.005384293E1,1.695239571E1
3.487308208E0,-6.845714264E0,-1.287996597E1,9.636810150E0,1.748214624E1
3.497249208E0,-7.390132141E0,-1.295975006E1,9.114695892E0,1.748275882E1
3.507189208E0,-7.257358246E0,-1.267025208E1,8.522078247E0,1.690651809E1
3.517130208E0,-6.267915802E0,-1.221040833E1,7.859256592E0,1.581609162E1
3.527070208E0,-4.808450775E0,-1.157183624E1,7.516020355E0,1.461229465E1
3.537011208E0,-3.532653809E0,-1.098819992E1,7.320077820E0,1.366761573E1
3.546951208E0,-2.793191528E0,-1.056023987E1,7.015161896E0,1.298202917E1
3.556892208E0,-2.620899811E0,-1.015652939E1,6.492748260E0,1.233612520E1
3.566832208E0,-2.371368713E0,-9.716594238E0,5.965993652E0,1.164597241E1
3.576773208E0,-1.717528381E0,-9.218130798E0,5.202132111E0,1.072315334E1
3.586713208E0,-1.403930511E0,-9.157057800E0,4.051624603E0,1.011130013E1
3.596654208E0,-1.673968964E0,-9.466165009E0,2.901566162E0,1.004139125E1
3.606594208E0,-2.293530579E0,-9.803862762E0,2.157613220E0,1.029715021E1
3.616535208E0,-3.026107178E0,-9.996512146E0,1.618135071E0,1.056910312E1
3.626475208E0,-3.745660858E0,-1.008378067E1,1.130898285E0,1.081626270E1
3.636416208E0,-4.689747620E0,-1.026894562E1,3.367996216E-1,1.129417597E1
3.646356208E0,-5.504054260E0,-1.061996567E1,-8.180488586E-1,1.198947405E1
3.656296208E0,-5.111420746E0,-1.070304291E1,-2.208208008E0,1.206473921E1
3.666237208E0,-3.939807129E0,-1.036295013E1,-2.023641815E0,1.126978003E1
3.676177208E0,-3.127596130E0,-9.956694946E0,-1.676513672E-1,1.043770754E1
3.686118208E0,-2.301015015E0,-9.591753845E0,1.144819336E0,9.930106910E0
3.696058208E0,-5.869294739E-1,-9.722581787E0,8.704399109E-1,9.779097528E0
3.705999208E0,7.138655090E-1,-9.302106171E0,5.664221191E-1,9.346636678E0
3.715939208E0,1.906435547E0,-8.968450012E0,5.957611084E-1,9.188173018E0
3.725880208E0,2.695295105E0,-8.522677002E0,-1.248403931E-1,8.939587468E0
3.735820208E0,2.724334717E0,-8.123906250E0,-1.053209839E0,8.633023999E0
3.745761208E0,2.264490967E0,-8.133336639E0,-1.627116394E0,8.598057454E0
3.755701208E0,1.823957062E0,-8.311017151E0,-2.253863068E0,8.802256766E0
3.765642208E0,1.529519348E0,-8.263715515E0,-3.376079407E0,9.056839168E0
3.775582208E0,1.164428558E0,-8.277636566E0,-4.643194427E0,9.562134463E0
3.785523208E0,5.056484985E-1,-8.374185791E0,-5.028942261E0,9.781253924E0
3.795463208E0,-3.210823059E-1,-8.604257355E0,-5.031037903E0,9.972345805E0
3.805404208E0,-1.028361511E0,-9.079519043E0,-4.926255798E0,1.038090505E1
3.815344208E0,-1.415456543E0,-9.477541351E0,-4.411925354E0,1.054952097E1
3.825285208E0,-1.449286194E0,-9.856702881E0,-3.588188324E0,1.058915094E1
3.835225208E0,-1.138831787E0,-1.030576904E1,-2.425556030E0,1.064843347E1
3.845166208E0,-1.178948364E0,-1.107247467E1,-1.279838562E0,1.120837193E1
3.855106208E0,-1.544039154E0,-1.225815903E1,-3.397933960E-2,1.235506674E1
3.865047208E0,-1.802701263E0,-1.266905457E1,7.203021240E-1,1.281692282E1
3.874987208E0,-1.594933319E0,-1.218855377E1,8.842112732E-1,1.232422350E1
3.884928208E0,-1.299597473E0,-1.200308945E1,9.638456726E-1,1.211165176E1
3.894868208E0,-9.879455566E-1,-1.185534668E1,8.229885864E-1,1.192487281E1
3.904809208E0,-7.708969116E-1,-1.077743820E1,3.210823059E-1,1.080974329E1
3.914749208E0,-9.556127930E-1,-1.008797195E1,-8.382568359E-3,1.013313595E1
3.924690208E0,-1.061592407E0,-9.261241150E0,-4.625381470E-1,9.333354574E0
3.934630208E0,-1.203197937E0,-8.559500427E0,-1.025816803E0,8.704311171E0
3.944571208E0,-1.411564636E0,-8.866811371E0,-1.073268127E0,9.042387023E0
3.954511208E0,-1.560804291E0,-8.993597717E0,-9.830058289E-1,9.180806631E0
3.964452208E0,-1.520538025E0,-8.951385498E0,-1.029109955E0,9.137746195E0
3.974392208E0,-1.374890900E0,-8.850195923E0,-1.272503815E0,9.046300836E0
3.984333208E0,-1.340163116E0,-9.067394257E0,-1.447639618E0,9.279511638E0
3.994273208E0,-1.442849579E0,-9.288035431E0,-1.560355225E0,9.528070398E0
4.004214208E0,-1.684447174E0,-9.265731812E0,-1.833986206E0,9.594511644E0
4.014154208E0,-1.688788147E0,-9.497000885E0,-1.785636749E0,9.809869001E0
4.024094208E0,-1.710043945E0,-9.363029480E0,-1.601968689E0,9.651780925E0
4.034035208E0,-1.698966980E0,-9.248966675E0,-1.044378204E0,9.461532602E0
4.043975208E0,-1.806742859E0,-9.126371613E0,-5.906716919E-1,9.322224607E0
4.053916208E0,-1.742825775E0,-9.309291229E0,-2.956352234E-1,9.475639559E0
4.063856208E0,-1.678908691E0,-9.400152283E0,-2.668949890E-1,9.552634729E0
4.073797208E0,-1.451830902E0,-9.632618866E0,-1.930984497E-1,9.743328292E0
4.083737208E0,-1.138233032E0,-9.710307312E0,-3.592529297E-2,9.776857018E0
4.093678208E0,-9.680369568E-1,-9.577982483E0,-7.409591675E-2,9.627062594E0
4.103618208E0,-7.412585449E-1,-9.605824585E0,4.191284180E-2,9.634473876E0
4.113559208E0,-4.655319214E-1,-9.682315521E0,2.041754150E-1,9.695650645E0
4.123499208E0,-2.170486450E-1,-9.719288635E0,3.513194275E-1,9.728057721E0
4.133440208E0,-2.004331970E-1,-9.510323181E0,2.149530029E-1,9.514863387E0
4.143380208E0,-7.978408813E-2,-1.016610947E1,3.185375977E-1,1.017141157E1
4.153321208E0,-6.810836792E-2,-1.061023590E1,2.845582581E-1,1.061426955E1
4.163261208E0,-3.842509460E-1,-1.070513855E1,-1.302291870E-2,1.071204041E1
4.173202208E0,-8.494834900E-1,-1.079959213E1,-5.140310669E-1,1.084513902E1
4.183142208E0,-1.358425140E0,-1.103550156E1,-1.073417816E0,1.117048966E1
4.193083208E0,-1.798959045E0,-1.119881195E1,-1.528022461E0,1.144484580E1
4.203023208E0,-2.099983063E0,-1.113414642E1,-1.731449432E0,1.146198336E1
4.212964208E0,-2.229463806E0,-1.090676926E1,-1.722318420E0,1.126474612E1
4.222904208E0,-2.221530304E0,-1.071681427E1,-1.634600830E0,1.106603926E1
4.232845208E0,-2.287842407E0,-1.065678909E1,-1.433419189E0,1.099345565E1
4.242785208E0,-2.314337311E0,-1.063149170E1,-1.186881866E0,1.094501994E1
4.252726208E0,-2.145787811E0,-1.057954971E1,-8.232879639E-1,1.082631426E1
4.262666208E0,-1.829495544E0,-1.053913376E1,-2.329156494E-1,1.069928241E1
4.272607208E0,-1.581311646E0,-1.058673477E1,6.466552734E-1,1.072369632E1
4.282547208E0,-1.648671570E0,-1.066487228E1,1.438508606E0,1.088700720E1
4.292488208E0,-2.076781311E0,-1.093670700E1,1.764231262E0,1.127107327E1
4.302428208E0,-2.675985260E0,-1.150118317E1,1.764380951E0,1.193947869E1
4.312368208E0,-3.193010101E0,-1.205488174E1,1.249152374E0,1.253299122E1
4.322309208E0,-3.819906464E0,-1.273746231E1,6.089337158E-1,1.331185306E1
4.332249208E0,-4.248614960E0,-1.301797897E1,-1.796264648E-2,1.369375143E1
4.342190208E0,-4.491260376E0,-1.302651123E1,-2.944377136E-1,1.378216631E1
4.352130208E0,-4.429289246E0,-1.278042297E1,1.182540894E-2,1.352619512E1
4.362071208E0,-3.910917206E0,-1.231204697E1,6.866221619E-1,1.293650741E1
4.372011208E0,-3.052302704E0,-1.154429352E1,1.669178925E0,1.205709015E1
4.381952208E0,-2.563868408E0,-1.112980545E1,2.653831329E0,1.172556230E1
4.391892208E0,-2.349214783E0,-1.098490677E1,3.730542297E0,1.183655071E1
4.401833208E0,-2.201172638E0,-1.079061081E1,4.524341583E0,1.190596949E1
4.411773208E0,-1.981728973E0,-1.083252365E1,4.208348694E0,1.178902104E1
4.421714208E0,-1.731299744E0,-1.052521271E1,2.592758331E0,1.097724451E1
4.431654208E0,-7.301815796E-1,-1.010638367E1,4.402345276E-1,1.014228586E1
4.441595208E0,-5.501060486E-1,-1.049347870E1,-1.570234680E0,1.062456346E1
4.451535208E0,-9.653425598E-1,-1.126662094E1,-2.981350250E0,1.169431841E1
4.461476208E0,-1.032702484E0,-1.214469498E1,-3.827091522E0,1.277523855E1
4.471416208E0,-9.620494080E-1,-1.333906128E1,-4.386627960E0,1.407475043E1
4.481356917E0,-7.038363647E-1,-1.416234924E1,-4.532724152E0,1.488667558E1
4.491296917E0,-5.962101746E-1,-1.437894882E1,-4.280348969E0,1.501436056E1
4.501237917E0,-4.562512207E-1,-1.413944687E1,-3.682192841E0,1.461816223E1
4.511177917E0,-5.403762817E-2,-1.371148682E1,-2.874622192E0,1.400968392E1
4.521118917E0,3.655398560E-1,-1.294987061E1,-2.195484467E0,1.313974582E1
4.531058917E0,5.150788879E-1,-1.191432404E1,-1.705852661E0,1.204684012E1
4.540999917E0,1.076261902E-1,-1.088027435E1,-9.367520142E-1,1.092105571E1
4.550939917E0,-1.652563477E-1,-1.043420197E1,-8.442443848E-2,1.043585204E1
4.560880917E0,-5.926176453E-1,-1.032507889E1,5.201683044E-1,1.035514485E1
4.570820917E0,-1.460063782E0,-1.025292892E1,4.200265503E-1,1.036488109E1
4.580760917E0,-2.129022675E0,-1.021999741E1,2.210902405E-1,1.044174149E1
4.590701917E0,-2.278262329E0,-1.007914032E1,2.423460388E-1,1.033626047E1
4.600641917E0,-1.900747375E0,-9.683513031E0,3.168910217E-1,9.873382659E0
4.610582917E0,-1.455273743E0,-9.299262085E0,-5.366340637E-1,9.427728948E0
4.620522917E0,-1.258433075E0,-8.849297791E0,-1.513802032E0,9.065612047E0
4.630463917E0,-1.367256775E0,-8.434061279E0,-2.433040466E0,8.883831756E0
4.640403917E0,-1.538201294E0,-8.043224030E0,-3.047512665E0,8.737668422E0
4.650344917E0,-1.648970947E0,-7.650889893E0,-2.902464294E0,8.347425969E0
4.660284917E0,-1.731748810E0,-7.253765717E0,-1.871408386E0,7.688838687E0
4.670225917E0,-1.722767487E0,-6.990163879E0,-8.665480042E-1,7.251291217E0
4.680165917E0,-1.639690247E0,-6.761738892E0,-6.725514221E-1,6.990137506E0
4.690106917E0,-1.404229889E0,-6.606212311E0,-7.575746155E-1,6.796162298E0
4.700046917E0,-9.023236084E-1,-6.441854095E0,-8.502319336E-1,6.560073660E0
4.709987917E0,-7.005432129E-2,-6.312822418E0,-7.629634094E-1,6.359146771E0
4.719927917E0,7.912545776E-1,-6.289920044E0,-5.861810303E-1,6.366536434E0
4.729868917E0,1.437311096E0,-6.280938721E0,-3.879931641E-1,6.454966545E0
4.739808917E0,1.974992981E0,-6.044280853E0,-4.146377563E-1,6.372272183E0
4.749749917E0,2.127076721E0,-5.695206757E0,-6.262976074E-1,6.111635139E0
4.759689917E0,2.182461548E0,-5.468128967E0,-6.056405640E-1,5.918646239E0
4.769630917E0,2.188449097E0,-5.417085114E0,-3.068618774E-1,5.850494405E0
4.779570917E0,1.974094849E0,-5.555696869E0,1.058299255E-1,5.896949902E0
4.789511917E0,1.559906158E0,-5.785918121E0,4.854405212E-1,6.012138407E0
4.799451917E0,1.088237000E0,-6.024821320E0,8.523275757E-1,6.181358588E0
4.809392917E0,5.171745300E-1,-6.281836853E0,1.327140198E0,6.441292172E0
4.819332917E0,-1.589694214E-1,-6.584806824E0,1.823957062E0,6.834601052E0
4.829273917E0,-8.414002991E-1,-7.003037109E0,2.382894745E0,7.445043357E0
4.839213917E0,-1.582808533E0,-7.593409424E0,3.313659210E0,8.434778414E0
4.849153917E0,-2.549049225E0,-8.455915833E0,4.590204620E0,9.953398564E0
4.859094917E0,-3.741768951E0,-9.379046173E0,5.481451263E0,1.148971932E1
4.869034917E0,-5.082530823E0,-1.030187714E1,5.923931122E0,1.292492754E1
4.878975917E0,-6.433621216E0,-1.115659973E1,5.845793610E0,1.414335542E1
4.888915917E0,-7.781867523E0,-1.179592026E1,4.998405762E0,1.498950490E1
4.898856917E0,-8.800948334E0,-1.223615479E1,3.976181488E0,1.558814276E1
4.908796917E0,-9.197922821E0,-1.236713242E1,3.126099243E0,1.572641869E1
4.918737917E0,-8.981023865E0,-1.213062424E1,2.834505615E0,1.535725419E1
4.928677917E0,-8.263266449E0,-1.171778275E1,3.334915009E0,1.472106188E1
4.938618917E0,-7.143295441E0,-1.148381927E1,3.976331177E0,1.409666572E1
4.948558917E0,-5.962101746E0,-1.148531616E1,4.465364227E0,1.368936165E1
4.958499917E0,-4.759053497E0,-1.140014328E1,4.910388794E0,1.329374947E1
4.968439917E0,-3.897295532E0,-1.126123215E1,5.312452698E0,1.304708456E1
4.978380917E0,-3.781436462E0,-1.093775482E1,5.249433746E0,1.270788326E1
4.988320917E0,-3.986360321E0,-1.028571075E1,4.942721558E0,1.208790349E1
4.998261917E0,-4.219275970E0,-9.491761780E0,4.633764038E0,1.137398789E1
5.008201917E0,-4.248614960E0,-8.809031525E0,4.150269470E0,1.062424125E1
5.018142917E0,-4.002377014E0,-8.643775177E0,3.259471893E0,1.006767243E1
5.028082917E0,-3.829486542E0,-9.350156250E0,2.176174622E0,1.033567245E1
5.038023917E0,-3.804338837E0,-1.070888077E1,8.675958252E-1,1.139762448E1
5.047963917E0,-3.580853577E0,-1.207883194E1,-5.237608337E-1,1.260932269E1
5.057904917E0,-3.464246063E0,-1.335567673E1,-1.465452576E0,1.387525325E1
5.067844917E0,-2.889890442E0,-1.409364212E1,-2.418520660E0,1.458874419E1
5.077785917E0,-1.489552460E0,-1.430275726E1,-2.460882568E0,1.458915950E1
5.087725917E0,3.074606323E-1,-1.445993042E1,-1.544338531E0,1.454541513E1
5.097665917E0,8.577163696E-1,-1.432790497E1,1.163231049E0,1.440061265E1
5.107606917E0,-3.478765869E-1,-1.208541824E1,4.104913788E0,1.276826807E1
5.117546917E0,-1.071771240E-1,-9.081464996E0,1.825753326E0,9.263793425E0
5.127487917E0,1.262324982E0,-7.154971161E0,-1.149160309E0,7.355789970E0
5.137427917E0,1.785487061E0,-5.956114197E0,-1.767524414E0,6.464317669E0
5.147368917E0,2.261646881E0,-5.035827942E0,-1.909279633E0,5.841229185E0
5.157308917E0,2.773432617E0,-4.640200653E0,-2.386038208E0,5.909024362E0
5.167249917E0,2.884351959E0,-4.848118286E0,-2.849025421E0,6.319864159E0
5.177189917E0,2.780917053E0,-5.579647064E0,-3.228186951E0,7.020480896E0
5.187130917E0,2.640509033E0,-6.881040802E0,-3.671265564E0,8.234027041E0
5.197070917E0,1.882335663E0,-8.589288483E0,-4.399950256E0,9.832528995E0
5.207011917E0,5.888754272E-1,-1.025936554E1,-5.056934052E0,1.145311912E1
5.216951917E0,-5.715115356E-1,-1.170071823E1,-5.219496002E0,1.282484195E1
5.226892917E0,-1.444795532E0,-1.314910629E1,-4.959935760E0,1.412754024E1
5.236832917E0,-1.978585510E0,-1.419168823E1,-4.321213989E0,1.496635246E1
5.246773917E0,-1.873953094E0,-1.385279297E1,-3.277284851E0,1.435800018E1
5.256713917E0,-1.763033752E0,-1.245499969E1,-1.681902466E0,1.269110323E1
5.266654917E0,-2.237397308E0,-1.095736404E1,-7.484436035E-2,1.118371026E1
5.276594917E0,-2.392175446E0,-9.546098785E0,1.255289612E0,9.921000826E0
5.286535917E0,-2.062860260E0,-8.632548523E0,2.323618011E0,9.174720002E0
5.296475917E0,-1.595232697E0,-8.234226837E0,2.928959198E0,8.884034047E0
5.306416917E0,-1.153201904E0,-8.381520538E0,2.753973083E0,8.897422599E0
5.316356917E0,-8.448431396E-1,-8.839867401E0,1.755399628E0,9.051985608E0
5.326296917E0,-6.572831726E-1,-9.365125122E0,4.254153442E-1,9.397795908E0
5.336237917E0,-5.421725464E-1,-9.695039063E0,-7.210505676E-1,9.736921865E0
5.346177917E0,-5.126838684E-1,-9.818981323E0,-1.430425415E0,9.935862109E0
5.356118917E0,-7.253915405E-1,-9.741891632E0,-1.749412079E0,9.924267634E0
5.366058917E0,-1.097966766E0,-9.487420807E0,-1.773661652E0,9.714039337E0
5.375999917E0,-1.502575378E0,-9.192234650E0,-1.696721649E0,9.467511551E0
5.385939917E0,-1.777553558E0,-8.904832306E0,-1.628613281E0,9.225406022E0
5.395880917E0,-1.925745392E0,-8.641829224E0,-1.555864563E0,8.989461729E0
5.405820917E0,-2.078727264E0,-8.453820190E0,-1.453178101E0,8.826092535E0
5.415761917E0,-2.239642639E0,-8.409063263E0,-1.268611908E0,8.794186732E0
5.425701917E0,-2.519261169E0,-8.512647858E0,-1.056502991E0,8.940248820E0
5.435642917E0,-2.838547211E0,-8.759035492E0,-9.105564880E-1,9.252414071E0
5.445582917E0,-3.027604065E0,-9.089248810E0,-7.360194397E-1,9.608462672E0
5.455523917E0,-2.988385620E0,-9.401200104E0,-5.849835205E-1,9.882065458E0
5.465463917E0,-2.707120514E0,-9.593101044E0,-4.887336731E-1,9.979726936E0
5.475404917E0,-2.316432953E0,-9.649234314E0,-3.832031250E-1,9.930781898E0
5.485344792E0,-1.893861694E0,-9.654772797E0,-2.219883728E-1,9.841271702E0
5.495285792E0,-1.482966156E0,-9.702523499E0,-4.954696655E-2,9.815325046E0
5.505225792E0,-1.018032990E0,-9.845176849E0,7.723937988E-2,9.897972736E0
5.515166792E0,-5.074447632E-1,-9.886790314E0,1.511856079E-1,9.900958539E0
5.525106792E0,-3.667373657E-2,-9.874815216E0,1.170565796E-1,9.875577085E0
5.535047792E0,4.092489624E-1,-9.895771637E0,8.128097534E-2,9.904563978E0
5.544987792E0,7.752378845E-1,-9.929002533E0,5.104385376E-2,9.959351914E0
5.554928792E0,9.704319763E-1,-9.968520355E0,1.038839722E-1,1.001618331E1
5.564868792E0,9.303153992E-1,-1.000279907E1,2.347119141E-1,1.004870965E1
5.574808792E0,3.885919189E-1,-1.002210892E1,3.643423462E-1,1.003625509E1
5.584749792E0,-5.644761658E-1,-1.004845413E1,2.872526550E-1,1.006839500E1
5.594689792E0,-1.526375885E0,-1.005713608E1,-4.251159668E-2,1.017239483E1
5.604630792E0,-2.251917114E0,-1.004486160E1,-5.122348022E-1,1.030692776E1
5.614570792E0,-2.699037323E0,-9.984387360E0,-1.052461395E0,1.039617566E1
5.624511792E0,-2.925516357E0,-9.882898407E0,-1.583556976E0,1.042775046E1
5.634451792E0,-3.043171692E0,-9.829908600E0,-1.905238037E0,1.046508141E1
5.644392792E0,-3.081342316E0,-9.916428680E0,-1.940714264E0,1.056392920E1
5.654332792E0,-2.907553711E0,-1.016296600E1,-1.721719666E0,1.070999837E1
5.664273792E0,-2.386487274E0,-1.037582336E1,-1.330433350E0,1.072954262E1
5.674213792E0,-1.603166199E0,-1.045186523E1,-7.976911926E-1,1.060414730E1
5.684154792E0,-8.771759033E-1,-1.049886749E1,-3.912863159E-1,1.054271128E1
5.694094792E0,-3.291654968E-1,-1.057475967E1,-1.216969299E-1,1.058058137E1
5.704035792E0,-7.634124756E-3,-1.067071014E1,3.143463135E-3,1.067071334E1
5.713975792E0,-1.225950623E-1,-1.088386688E1,-2.609074402E-1,1.088768389E1
5.723916792E0,-1.022373962E-1,-1.099194214E1,-8.502319336E-2,1.099274640E1
5.733856792E0,-4.939727783E-1,-1.095811249E1,1.661544800E-1,1.097049888E1
5.743797792E0,-1.237326965E0,-1.101215012E1,1.583706665E-1,1.108257684E1
5.753737792E0,-2.232307892E0,-1.128458359E1,-9.101074219E-2,1.150362153E1
5.763678792E0,-3.318149872E0,-1.177451477E1,-5.385800171E-1,1.224497387E1
5.773618792E0,-4.157604218E0,-1.216325638E1,-1.038240967E0,1.289606230E1
5.783558792E0,-4.851112061E0,-1.246353195E1,-1.336869965E0,1.344098725E1
5.793499792E0,-5.363197174E0,-1.274509644E1,-1.380878448E0,1.389633737E1
5.803439792E0,-5.739364929E0,-1.301438644E1,-1.168170776E0,1.427162175E1
5.813380792E0,-5.999074860E0,-1.321931030E1,-7.270381165E-1,1.453504897E1
5.823320792E0,-5.921835480E0,-1.311827042E1,2.903961182E-2,1.439298431E1
5.833261792E0,-5.233566742E0,-1.254630981E1,1.145418091E0,1.364229062E1
5.843201792E0,-4.241579590E0,-1.168275558E1,2.473007355E0,1.267255068E1
5.853142792E0,-3.285667419E0,-1.079405365E1,3.801644440E0,1.190628847E1
5.863082792E0,-2.465672607E0,-1.012015503E1,4.712200928E0,1.143249390E1
5.873023792E0,-1.595532074E0,-9.588760071E0,4.204307098E0,1.059085646E1
5.882963792E0,-5.412744141E-1,-8.899293823E0,2.730022888E0,9.324346278E0
5.892904792E0,-7.544311523E-2,-8.556057587E0,1.648671570E0,8.713778230E0
5.902844792E0,-2.540217590E-1,-8.882378998E0,8.683442688E-1,8.928337218E0
5.912785792E0,-6.225553894E-1,-9.429790649E0,-6.577322388E-1,9.473179963E0
5.922725792E0,-1.101559296E0,-1.020892044E1,-2.315834198E0,1.052609032E1
5.932666792E0,-2.090702362E0,-1.122171432E1,-3.912713470E0,1.206678232E1
5.942606792E0,-3.042872314E0,-1.187181244E1,-5.495971069E0,1.343148169E1
5.952547792E0,-3.549568634E0,-1.220232513E1,-6.576424255E0,1.430893190E1
5.962487792E0,-3.801045685E0,-1.220172638E1,-6.997049561E0,1.457013306E1
5.972428792E0,-3.744613037E0,-1.188827820E1,-6.718478851E0,1.415949305E1
5.982368792E0,-3.681294708E0,-1.154534134E1,-5.927224274E0,1.348995274E1
5.992308792E0,-3.688180389E0,-1.124476639E1,-4.928351440E0,1.281936401E1
6.002249792E0,-3.607198792E0,-1.101708984E1,-4.004772034E0,1.226484206E1
6.012189792E0,-3.573818207E0,-1.080153809E1,-3.187471619E0,1.181547193E1
6.022130792E0,-3.788471832E0,-1.040127045E1,-2.494712219E0,1.134735805E1
6.032070792E0,-4.115541687E0,-1.013886612E1,-1.881587219E0,1.110291223E1
6.042011792E0,-4.188589783E0,-1.004141876E1,-1.272204437E0,1.095412613E1
6.051951792E0,-3.806733856E0,-1.013856674E1,-4.050576782E-1,1.083724273E1
6.061892792E0,-3.221151581E0,-1.035801041E1,1.408570862E-1,1.084822740E1
6.071832792E0,-2.481838989E0,-1.041863434E1,1.945953369E-2,1.071017483E1
6.081773792E0,-1.892514496E0,-1.038869659E1,-1.004561005E0,1.060734514E1
6.091713792E0,-1.511856079E0,-1.023810974E1,-2.377805328E0,1.061878327E1
6.101654792E0,-1.192869415E0,-1.010084518E1,-3.312761078E0,1.069693399E1
6.111594792E0,-1.024469604E0,-9.872719574E0,-4.061504059E0,1.072454871E1
6.121535792E0,-8.375083923E-1,-9.537267151E0,-4.895868988E0,1.075315852E1
6.131475792E0,-7.352709961E-1,-9.145531769E0,-5.616320801E0,1.075752918E1
6.141416792E0,-1.496138763E0,-8.788973236E0,-5.399721222E0,1.042312194E1
6.151356792E0,-2.419568481E0,-8.523275757E0,-3.549418945E0,9.544575219E0
6.161297792E0,-2.977907410E0,-8.300389252E0,-1.882934418E0,9.017196698E0
6.171237792E0,-3.270399170E0,-8.354426880E0,-1.410067749E0,9.081863811E0
6.181178792E0,-3.070265350E0,-8.565038910E0,-1.603764954E0,9.238965466E0
6.191118792E0,-2.354753265E0,-9.004974060E0,-1.930236053E0,9.505799913E0
6.201058792E0,-1.147064667E0,-9.539961548E0,-2.119143219E0,9.839582901E0
6.210999792E0,1.830693054E-1,-9.864935760E0,-2.216291199E0,1.011248825E1
6.220939792E0,1.243164825E0,-9.933493195E0,-2.055675201E0,1.021986039E1
6.230880792E0,2.142943726E0,-9.706714783E0,-1.764231262E0,1.009579277E1
6.240820792E0,2.617157593E0,-9.241931305E0,-1.409918060E0,9.708278789E0
6.250761792E0,2.816992035E0,-8.679101715E0,-9.499246216E-1,9.174127070E0
6.260701792E0,2.911744995E0,-8.013435974E0,-3.796105957E-1,8.534489981E0
6.270642792E0,2.855312347E0,-7.455845490E0,2.606080627E-1,7.988138527E0
6.280582792E0,2.660267944E0,-7.170987854E0,1.011296997E0,7.715102978E0
6.290523792E0,2.272274780E0,-7.134912872E0,1.704655151E0,7.679587460E0
6.300463792E0,1.926643524E0,-7.236401825E0,2.227218475E0,7.812680000E0
6.310404792E0,1.681902466E0,-7.410340118E0,2.557132416E0,8.017534706E0
6.320344792E0,1.547931061E0,-7.511080627E0,2.662363586E0,8.117918614E0
6.330285792E0,1.530567169E0,-7.441924438E0,2.607727203E0,8.032752727E0
6.340225792E0,1.505269775E0,-7.190896454E0,2.578388214E0,7.786071839E0
6.350166792E0,1.364562378E0,-6.964417419E0,2.560275879E0,7.544544589E0
6.360106792E0,1.019529877E0,-6.800358582E0,2.453996887E0,7.301124484E0
6.370047792E0,5.161267090E-1,-6.668931885E0,2.100731506E0,7.010999367E0
6.379987792E0,-5.269042969E-2,-6.681505737E0,1.980531464E0,6.969060200E0
6.389928792E0,-7.999365234E-1,-7.032376099E0,2.303110657E0,7.443018926E0
6.399868792E0,-1.850451965E0,-7.803871765E0,3.252436523E0,8.654647904E0
6.409808792E0,-3.545676727E0,-8.959319000E0,4.937632141E0,1.082688467E1
6.419749792E0,-5.821244659E0,-1.032597702E1,5.653293915E0,1.313287565E1
6.429689792E0,-7.901019745E0,-1.171329208E1,4.567451935E0,1.484887005E1
6.439630792E0,-9.327553253E0,-1.297995804E1,3.147654419E0,1.629080381E1
6.449570792E0,-1.041129959E1,-1.391132126E1,2.261197815E0,1.752235811E1
6.459511792E0,-1.091604996E1,-1.430440384E1,2.112107849E0,1.811731535E1
6.469451792E0,-1.052970337E1,-1.340956467E1,2.783761139E0,1.727542774E1
6.479392792E0,-9.051826630E0,-1.149774033E1,3.761827240E0,1.510910130E1
6.489333583E0,-7.185058594E0,-9.746531982E0,4.014950867E0,1.275695039E1
6.499274583E0,-5.560337219E0,-8.882528687E0,4.029320984E0,1.122729235E1
6.509214583E0,-4.083508301E0,-8.699010315E0,3.949387207E0,1.038968141E1
6.519155583E0,-2.721041565E0,-9.420060883E0,3.129392395E0,1.029245894E1
6.529095583E0,-1.726509705E0,-1.140792709E1,1.828597412E0,1.168184081E1
6.539036583E0,-1.734293518E0,-1.362706238E1,1.064885559E0,1.377819235E1
6.548976583E0,-2.081421661E0,-1.550400925E1,1.149160309E0,1.568525385E1
6.558917583E0,-2.085313568E0,-1.682755692E1,1.736089783E0,1.704491749E1
6.568857583E0,-1.899549866E0,-1.624841125E1,1.761237488E0,1.645360494E1
6.578798583E0,-2.500550079E0,-1.328592178E1,4.517605591E-1,1.352673486E1
6.588738583E0,-4.170627136E0,-1.118219650E1,-8.159532166E-1,1.196250095E1
6.598678583E0,-5.450316010E0,-9.904004517E0,-6.024971008E-1,1.132070019E1
6.608619583E0,-5.124144287E0,-8.491691437E0,6.352789307E-1,9.938272358E0
6.618559583E0,-3.307072906E0,-7.042704620E0,7.795788574E-1,7.819473305E0
6.628500583E0,-1.193019104E0,-6.126909027E0,-4.156855774E-1,6.255805568E0
6.638440583E0,4.059558105E-1,-5.745053101E0,-1.085093536E0,5.860705011E0
6.648381583E0,1.363963623E0,-5.738466797E0,-4.242178345E-1,5.913574107E0
6.658321583E0,1.920955353E0,-6.078260193E0,4.164340210E-1,6.388171392E0
6.668262583E0,2.042352905E0,-6.534661102E0,5.686674500E-1,6.869962429E0
6.678202583E0,1.710343323E0,-7.233108673E0,1.022373962E-1,7.433275714E0
6.688143583E0,1.201701050E0,-8.248297577E0,-5.273533630E-1,8.352041661E0
6.698083583E0,6.007008362E-1,-9.446555786E0,-1.222058716E0,9.544196416E0
6.708024583E0,-2.222877502E-1,-1.061038559E1,-1.919757843E0,1.078495083E1
6.717964583E0,-9.187893677E-1,-1.132035919E1,-2.314487000E0,1.159101187E1
6.727905583E0,-1.517544250E0,-1.170026917E1,-2.615660706E0,1.208473914E1
6.737845583E0,-2.211950226E0,-1.162781982E1,-2.865491180E0,1.217825757E1
6.747786583E0,-2.739153900E0,-1.088940536E1,-3.034489746E0,1.163143333E1
6.757726583E0,-2.574196930E0,-9.795929260E0,-2.928360443E0,1.054333983E1
6.767667583E0,-1.936822357E0,-9.045390015E0,-2.334694977E0,9.540501140E0
6.777607583E0,-1.310375061E0,-8.659941559E0,-1.657652893E0,8.914004920E0
6.787548583E0,-7.723937988E-1,-8.509654083E0,-1.219064941E0,8.631160069E0
6.797488583E0,-2.246827698E-1,-8.581504669E0,-9.520202637E-1,8.637074002E0
6.807429583E0,2.050735474E-1,-8.902437286E0,-9.313632202E-1,8.953372674E0
6.817369583E0,3.598516846E-1,-9.449399872E0,-1.071920929E0,9.516809636E0
6.827309583E0,2.348616028E-1,-1.001402573E1,-1.135987701E0,1.008098900E1
6.837250583E0,-1.251397705E-1,-1.043405228E1,-9.879455566E-1,1.048146666E1
6.847190583E0,-2.947370911E-1,-1.053359528E1,-8.557704163E-1,1.057240949E1
6.857131583E0,-3.008743286E-1,-1.038285873E1,-7.759863281E-1,1.041616223E1
6.867071583E0,-3.426374817E-1,-1.001417542E1,-8.631051636E-1,1.005713976E1
6.877012583E0,-4.403842163E-1,-9.577084351E0,-1.034049683E0,9.642807769E0
6.886952583E0,-6.381230164E-1,-9.164093170E0,-1.329984283E0,9.282061345E0
6.896893583E0,-8.030799866E-1,-8.753497009E0,-1.672023010E0,8.947866131E0
6.906833583E0,-1.027912445E0,-8.445737000E0,-1.983076172E0,8.736112898E0
6.916774583E0,-1.412911835E0,-8.326884155E0,-2.297422485E0,8.752797819E0
6.926714583E0,-1.837578735E0,-8.287216644E0,-2.495310974E0,8.847668177E0
6.936655583E0,-2.215243378E0,-8.389154663E0,-2.491419067E0,9.027313452E0
6.946595583E0,-2.475402374E0,-8.594976654E0,-2.273322601E0,9.228718018E0
6.956536583E0,-2.688110046E0,-8.878636780E0,-1.863624573E0,9.461988334E0
6.966476583E0,-2.830164642E0,-9.200168152E0,-1.357377319E0,9.720874401E0
6.976417583E0,-2.759960632E0,-9.438173218E0,-7.240443420E-1,9.860057636E0
6.986357583E0,-2.412533112E0,-9.535620575E0,3.936813354E-2,9.836154005E0
6.996298583E0,-1.996099091E0,-9.599986725E0,7.090754700E-1,9.830917796E0
7.006238583E0,-1.610950012E0,-9.735904083E0,1.107546844E0,9.930239084E0
7.016178583E0,-1.258133698E0,-1.004561005E1,1.046922913E0,1.017807591E1
7.026119583E0,-9.868977356E-1,-1.038929535E1,6.502478027E-1,1.045630179E1
7.036059583E0,-7.261399841E-1,-1.068313431E1,2.116598511E-1,1.070987571E1
7.046000583E0,-5.050497437E-1,-1.083746338E1,-2.092648315E-1,1.085124322E1
7.055940583E0,-3.266207886E-1,-1.077414505E1,-5.478607178E-1,1.079300857E1
7.065881583E0,-1.859133911E-1,-1.046848068E1,-7.580236816E-1,1.049753550E1
7.075821583E0,-4.790039063E-2,-1.000818787E1,-7.213499451E-1,1.003426452E1
7.085762583E0,7.933502197E-3,-9.665700073E0,-4.370910645E-1,9.675581091E0
7.095702583E0,-7.768844604E-2,-9.553283844E0,-1.520837402E-1,9.554810158E0
7.105643583E0,-2.189945984E-1,-9.668394470E0,5.298980713E-2,9.671019501E0
7.115583583E0,-4.891827393E-1,-9.857900391E0,1.127156067E-1,9.870673973E0
7.125524583E0,-9.346563721E-1,-9.988728333E0,-7.035369873E-3,1.003236392E1
7.135464583E0,-1.514700165E0,-1.002779709E1,-3.927832031E-1,1.014915315E1
7.145405583E0,-2.179916840E0,-9.975705414E0,-9.758207703E-1,1.025762946E1
7.155345583E0,-2.822231140E0,-9.847721558E0,-1.607806549E0,1.036955401E1
7.165286583E0,-3.296744385E0,-9.630822601E0,-2.182012482E0,1.041068903E1
7.175226583E0,-3.611390076E0,-9.348509674E0,-2.549498291E0,1.034102088E1
7.185167583E0,-3.873944092E0,-9.165590057E0,-2.718796234E0,1.031539320E1
7.195107583E0,-3.959416351E0,-9.089997253E0,-2.811453552E0,1.030578959E1
7.205047583E0,-3.821403351E0,-9.149273987E0,-2.798730011E0,1.030268061E1
7.214988583E0,-3.246299286E0,-9.580227814E0,-2.557880859E0,1.043369438E1
7.224928583E0,-2.177671509E0,-1.003168900E1,-1.928290100E0,1.044487147E1
7.234869583E0,-1.162033539E0,-1.043779449E1,-9.565109253E-1,1.054574744E1
7.244809583E0,-4.041595459E-1,-1.082189575E1,-2.814147949E-2,1.082947665E1
7.254750583E0,1.267863464E-1,-1.112022537E1,7.207511902E-1,1.114427967E1
7.264690583E0,3.686833191E-1,-1.126272903E1,9.366023254E-1,1.130761764E1
7.274631583E0,5.819897461E-1,-1.136107452E1,9.113049316E-1,1.141241443E1
7.284571583E0,1.859133911E-1,-1.176478500E1,3.065625000E-1,1.177024683E1
7.294512583E0,-9.367520142E-1,-1.275048523E1,-4.691244507E-1,1.279345363E1
7.304452583E0,-2.583627319E0,-1.351329895E1,-1.216220856E0,1.381171864E1
7.314393583E0,-3.948339386E0,-1.390443558E1,-1.470841370E0,1.452880198E1
7.324333583E0,-4.966522064E0,-1.414738037E1,-1.168170776E0,1.503925981E1
7.334274583E0,-5.632038116E0,-1.406370438E1,-4.162843323E-1,1.515522770E1
7.344214583E0,-6.055357819E0,-1.402268967E1,3.450325012E-1,1.527816191E1
7.354155583E0,-6.042783966E0,-1.380130005E1,1.171164551E0,1.511167587E1
7.364095583E0,-5.219645691E0,-1.291424469E1,2.356848907E0,1.412717784E1
7.374036583E0,-3.967649231E0,-1.173918823E1,4.033512268E0,1.303150037E1
7.383976583E0,-2.688858490E0,-1.089569229E1,5.319338379E0,1.241939738E1
7.393917583E0,-1.618733826E0,-1.050380722E1,5.220843201E0,1.184092349E1
7.403857583E0,-6.795867920E-1,-9.991722107E0,3.932173004E0,1.075910467E1
7.413797583E0,4.105961609E-1,-9.117390289E0,1.800455933E0,9.302528498E0
7.423738583E0,1.350042572E0,-8.581953735E0,-2.137554932E-1,8.690122915E0
7.433678583E0,1.066831512E0,-8.897048492E0,-1.776356049E0,9.135154195E0
7.443619583E0,5.403762817E-1,-9.733059998E0,-2.416275330E0,1.004304983E1
7.453559583E0,2.371069336E-1,-1.074675201E1,-2.657723236E0,1.107304797E1
7.463500583E0,9.535171509E-2,-1.201805832E1,-2.974913635E0,1.238115216E1
7.473440583E0,-1.730401611E-1,-1.314955536E1,-3.675606537E0,1.365470001E1
7.483381167E0,-2.772235107E-1,-1.367376526E1,-4.522994385E0,1.440507506E1
7.493321167E0,-3.510200500E-1,-1.363754059E1,-4.742288361E0,1.444281923E1
7.503262167E0,-3.514691162E-1,-1.303309753E1,-4.466861115E0,1.378179996E1
7.513202167E0,-2.083666992E-1,-1.233659592E1,-3.683090973E0,1.287634166E1
7.523143167E0,-9.774673462E-2,-1.168589905E1,-2.377505951E0,1.192570021E1
7.533083167E0,-2.261796570E-1,-1.094898148E1,-1.036893768E0,1.100029551E1
7.543024167E0,-6.719526672E-1,-1.031355286E1,1.152603149E-2,1.033542577E1
7.552964167E0,-1.243613892E0,-9.908195801E0,6.038442993E-1,1.000417650E1
7.562905167E0,-1.578617249E0,-9.631571045E0,1.281485138E0,9.843850739E0
7.572845167E0,-1.853745117E0,-9.595496063E0,1.459914093E0,9.881359462E0
7.582786167E0,-1.892664185E0,-9.472152557E0,7.571255493E-1,9.689019088E0
7.592726167E0,-1.814826050E0,-9.180109863E0,-3.517684937E-2,9.357844202E0
7.602666167E0,-1.752705231E0,-8.959019623E0,-9.900411987E-1,9.182384756E0
7.612607167E0,-1.830243988E0,-8.690178680E0,-2.297422485E0,9.173175493E0
7.622547167E0,-1.865121460E0,-8.540939026E0,-2.713706818E0,9.153716305E0
7.632488167E0,-1.700314178E0,-8.426876221E0,-1.996099091E0,8.825402128E0
7.642428167E0,-1.601369934E0,-8.164172516E0,-1.101858673E0,8.392388877E0
7.652369167E0,-1.485660553E0,-7.730823669E0,-6.069877625E-1,7.895647917E0
7.662309167E0,-1.124311981E0,-7.265441437E0,-4.011657715E-1,7.362856150E0
7.672250167E0,-6.478527832E-1,-6.991960144E0,-4.974156189E-1,7.039505819E0
7.682190167E0,-2.279759216E-1,-6.774462433E0,-7.455995178E-1,6.819181250E0
7.692131167E0,1.818717957E-1,-6.531218262E0,-8.084687805E-1,6.583578898E0
7.702071167E0,5.240602112E-1,-6.202950897E0,-6.523434448E-1,6.259136594E0
7.712012167E0,7.301815796E-1,-5.949527893E0,-7.566764832E-1,6.041738706E0
7.721952167E0,9.689350891E-1,-5.682932281E0,-1.119971008E0,5.872724205E0
7.731893167E0,1.268013153E0,-5.445376282E0,-1.482517090E0,5.784274987E0
7.741833167E0,1.647474060E0,-5.273833008E0,-1.554667053E0,5.739727783E0
7.751774167E0,2.060614929E0,-5.123545532E0,-1.414109344E0,5.700575229E0
7.761714167E0,2.368674316E0,-5.094206543E0,-1.247356110E0,5.754776762E0
7.771655167E0,2.542313232E0,-5.263504486E0,-9.660910034E-1,5.924623859E0
7.781595167E0,2.596350861E0,-5.603597260E0,-5.986051941E-1,6.204810087E0
7.791536167E0,2.367327118E0,-6.085445251E0,-1.522334290E-1,6.531466651E0
7.801476167E0,1.840273132E0,-6.566245422E0,3.770658875E-1,6.829667842E0
7.811416167E0,1.008452911E0,-7.092251587E0,9.876461792E-1,7.231352213E0
7.821357167E0,-4.430786133E-2,-7.767347717E0,1.796114960E0,7.972432671E0
7.831297167E0,-1.246158600E0,-8.756191406E0,3.117716675E0,9.377843913E0
7.841238167E0,-2.822380829E0,-1.013557297E1,5.177583160E0,1.172616904E1
7.851178167E0,-5.160219269E0,-1.176119247E1,7.701784058E0,1.497567992E1
7.861119167E0,-8.174950104E0,-1.342034225E1,9.052575073E0,1.813517331E1
7.871059167E0,-1.122785156E1,-1.514685196E1,8.969647522E0,2.087932833E1
7.881000167E0,-1.392569138E1,-1.658326492E1,8.914562073E0,2.341791991E1
7.890940167E0,-1.559951065E1,-1.677606400E1,8.424481201E0,2.440805071E1
7.900881167E0,-1.497845215E1,-1.526720169E1,7.120093689E0,2.254189900E1
7.910821167E0,-1.194725555E1,-1.289942551E1,5.979016571E0,1.857096478E1
7.920762167E0,-8.339308319E0,-1.171029831E1,5.477110291E0,1.538420901E1
7.930702167E0,-5.266498260E0,-1.126587250E1,4.906646576E0,1.336903391E1
7.940643167E0,-2.350112915E0,-1.070543793E1,4.281247101E0,1.176683937E1
7.950583167E0,-1.428030396E-1,-1.009949799E1,3.577859802E0,1.071547167E1
7.960524167E0,1.251547394E0,-9.528435516E0,2.592608643E0,9.953847188E0
7.970464167E0,1.824256439E0,-9.800419922E0,1.416953430E0,1.006895721E1
7.980405167E0,8.313711548E-1,-1.113339798E1,7.484436035E-1,1.118945470E1
7.990345167E0,-1.502425690E0,-1.211924789E1,8.725355530E-1,1.224315199E1
8.000286167E0,-3.432661743E0,-1.196581696E1,6.500981140E-1,1.246541494E1
8.010226167E0,-4.594096527E0,-1.114672028E1,-4.549040222E-1,1.206490918E1
8.020166167E0,-4.969216461E0,-1.020742355E1,-1.456620941E0,1.144580064E1
8.030107167E0,-4.612059174E0,-9.455986176E0,-1.291364594E0,1.059973523E1
8.040047167E0,-3.627406769E0,-8.808881836E0,-5.625302124E-1,9.543108472E0
8.049988167E0,-2.664908295E0,-8.323291626E0,1.035845947E-1,8.740117246E0
8.059928167E0,-1.326092377E0,-7.989186401E0,2.543211365E-1,8.102487247E0
8.069869167E0,7.155120850E-2,-7.774981842E0,-2.668949890E-1,7.779890433E0
8.079809167E0,1.003213806E0,-7.795489197E0,-9.497749329E-1,7.916954097E0
8.089750167E0,1.822460175E0,-8.017627258E0,-1.258283386E0,8.317871424E0
8.099690167E0,2.062860260E0,-8.502019958E0,-1.327738953E0,8.848877135E0
8.109631167E0,1.983225861E0,-8.864266663E0,-1.467697906E0,9.201225213E0
8.119571167E0,1.951342163E0,-9.080716553E0,-1.773212585E0,9.455761853E0
8.129512167E0,1.775607605E0,-9.433981934E0,-2.005379791E0,9.806851972E0
8.139452167E0,1.345102844E0,-9.803563385E0,-2.172282715E0,1.013103987E1
8.149393167E0,9.635462952E-1,-9.920470276E0,-2.212998047E0,1.020987328E1
8.159333167E0,4.173321533E-1,-9.687404938E0,-2.264341278E0,9.957269805E0
8.169274167E0,-2.981799316E-1,-9.389823761E0,-2.207758942E0,9.650487090E0
8.179214167E0,-1.200054474E0,-9.277108154E0,-2.165995789E0,9.601895865E0
8.189155167E0,-2.074685669E0,-9.351353760E0,-2.030228119E0,9.791525110E0
8.199095167E0,-2.883304138E0,-9.552834778E0,-1.684596863E0,1.011968189E1
8.209035167E0,-3.440295868E0,-9.751022644E0,-1.250349884E0,1.041544301E1
8.218976167E0,-3.696413269E0,-9.792636108E0,-9.481283569E-1,1.050990677E1
8.228916167E0,-3.753294983E0,-9.727371826E0,-7.439529419E-1,1.045286812E1
8.238857167E0,-3.631298676E0,-9.674681396E0,-6.042933655E-1,1.035137482E1
8.248797167E0,-3.284918976E0,-9.686207428E0,-5.373825073E-1,1.024217199E1
8.258738167E0,-2.624941406E0,-9.752968597E0,-4.857398987E-1,1.011170891E1
8.268678167E0,-2.010169830E0,-9.733509064E0,-4.568499756E-1,9.949406683E0
8.278619167E0,-1.516047363E0,-9.714797974E0,-5.671705627E-1,9.848724878E0
8.288559167E0,-1.066532135E0,-9.757010193E0,-7.818241882E-1,9.846216926E0
8.298500167E0,-7.475454712E-1,-9.814490662E0,-8.399034119E-1,9.878688623E0
8.308440167E0,-5.993536377E-1,-9.851314087E0,-7.276368713E-1,9.896315953E0
8.318381167E0,-4.987628174E-1,-9.710157623E0,-5.487588501E-1,9.738432199E0
8.328321167E0,-4.049079895E-1,-9.499844971E0,-4.387376404E-1,9.518586852E0
8.338262167E0,-3.945794678E-1,-9.231902161E0,-4.047583008E-1,9.249191302E0
8.348202167E0,-3.968247986E-1,-8.994495850E0,-4.302053833E-1,9.013517747E0
8.358143167E0,-4.156855774E-1,-8.865913239E0,-4.227209473E-1,8.885713536E0
8.368083167E0,-5.275030518E-1,-8.814120941E0,-4.474195862E-1,8.841220036E0
8.378024167E0,-6.616241455E-1,-8.841214600E0,-4.872367859E-1,8.879314264E0
8.387964167E0,-8.039781189E-1,-8.928183746E0,-5.474116516E-1,8.981008036E0
8.397904167E0,-1.044078827E0,-9.017847290E0,-5.319937134E-1,9.093661950E0
8.407845167E0,-1.360670471E0,-9.110205231E0,-4.233197021E-1,9.220979506E0
8.417785167E0,-1.743424530E0,-9.261690216E0,-4.064048767E-1,9.433111876E0
8.427726167E0,-2.162552948E0,-9.507030029E0,-4.667294312E-1,9.761049718E0
8.437666167E0,-2.507435760E0,-9.657317505E0,-5.825885010E-1,9.994519741E0
8.447607167E0,-2.663411407E0,-9.656419373E0,-7.252418518E-1,1.004321518E1
8.457547167E0,-2.701582031E0,-9.596094818E0,-8.387059021E-1,1.000434950E1
8.467488167E0,-2.613864441E0,-9.575288086E0,-9.370513916E-1,9.969779062E0
8.477428167E0,-2.453098755E0,-9.648934937E0,-9.436376953E-1,1.000050454E1
8.487369417E0,-2.094145203E0,-9.823921051E0,-8.297245789E-1,1.007885469E1
8.497309417E0,-1.518891449E0,-9.993967438E0,-5.947132874E-1,1.012620858E1
8.507250417E0,-8.541238403E-1,-1.010832962E1,-3.025209045E-1,1.014886073E1
8.517190417E0,-2.071691895E-1,-1.018062927E1,1.071771240E-1,1.018330096E1
8.527131417E0,3.282673645E-1,-1.025667114E1,5.369334412E-1,1.027596029E1
8.537071417E0,5.923182678E-1,-1.039677979E1,8.131091309E-1,1.044533471E1
8.547012417E0,6.502478027E-1,-1.056937088E1,7.551795959E-1,1.061624789E1
8.556952417E0,5.628295898E-1,-1.062595322E1,4.950205994E-1,1.065235675E1
8.566892417E0,1.242416382E-1,-1.052566177E1,-3.951782227E-2,1.052646918E1
8.576833417E0,-5.957611084E-1,-1.022808060E1,-7.213499451E-1,1.027077941E1
8.586774417E0,-1.301543427E0,-9.821975098E0,-1.439855804E0,1.001191265E1
8.596714417E0,-1.819915466E0,-9.477092285E0,-1.917362823E0,9.838884626E0
8.606654417E0,-2.180216217E0,-9.248068542E0,-2.170187073E0,9.746272439E0
8.616595417E0,-2.435585175E0,-9.158704376E0,-2.144590302E0,9.716645952E0
8.626535417E0,-2.608924713E0,-9.130712585E0,-1.906285858E0,9.685573099E0
8.636476417E0,-2.693049774E0,-9.202114105E0,-1.579216003E0,9.717270413E0
8.646416417E0,-2.738405457E0,-9.498198395E0,-1.241667938E0,9.962749443E0
8.656357417E0,-2.712808685E0,-9.920470276E0,-9.654922485E-1,1.032991949E1
8.666297417E0,-2.780168610E0,-1.038690033E1,-7.592211914E-1,1.077930669E1
8.676238417E0,-3.137026520E0,-1.096170502E1,-7.212002563E-1,1.142453684E1
8.686178417E0,-3.727099457E0,-1.187076462E1,-8.653504944E-1,1.247217521E1
8.696119417E0,-4.054917755E0,-1.266845581E1,-8.655001831E-1,1.332971197E1
8.706059417E0,-4.474046173E0,-1.325284058E1,-1.018032990E0,1.402466626E1
8.716000417E0,-4.773124237E0,-1.377315857E1,-1.193917236E0,1.462559573E1
8.725940417E0,-5.166356506E0,-1.437805069E1,-9.731263733E-1,1.530903511E1
8.735881417E0,-5.490282898E0,-1.501168304E1,-4.484674072E-1,1.599046457E1
8.745821417E0,-5.259762268E0,-1.526271103E1,1.592687988E-1,1.614437405E1
8.755762417E0,-4.239783325E0,-1.451935684E1,9.485774231E-1,1.515543747E1
8.765702417E0,-3.221450958E0,-1.330538132E1,1.958527222E0,1.382919908E1
8.775642417E0,-2.463576965E0,-1.218780533E1,3.176993408E0,1.283374837E1
8.785583417E0,-2.058968353E0,-1.140643021E1,4.459077301E0,1.241891183E1
8.795523417E0,-1.679806824E0,-1.085542603E1,4.809348907E0,1.199132445E1
8.805464417E0,-9.205856323E-1,-9.942025452E0,3.928730164E0,1.072969099E1
8.815404417E0,1.739382935E-1,-8.705895996E0,2.465223541E0,9.049873299E0
8.825345417E0,8.307723999E-2,-8.053702240E0,1.279988251E0,8.155206406E0
8.835285417E0,-4.917274475E-1,-7.607031097E0,1.504371643E-1,7.624391736E0
8.845226417E0,-9.289682007E-1,-7.379653931E0,-1.022224274E0,7.507810368E0
8.855166417E0,-1.367556152E0,-7.565417633E0,-2.003733215E0,7.944853717E0
8.865107417E0,-1.801653442E0,-8.115074615E0,-2.846331024E0,8.786466380E0
8.875047417E0,-2.517015839E0,-9.000483398E0,-3.677552490E0,1.004332925E1
8.884988417E0,-3.336262207E0,-9.877210236E0,-4.462819519E0,1.134048877E1
8.894928417E0,-3.801494751E0,-1.039408539E1,-5.072950745E0,1.217469518E1
8.904869417E0,-4.189487915E0,-1.079120956E1,-5.695057068E0,1.290099561E1
8.914809417E0,-4.192332001E0,-1.105256607E1,-5.794001312E0,1.316454768E1
8.924750417E0,-3.977678375E0,-1.105780518E1,-5.173242188E0,1.283975916E1
8.934690417E0,-3.580554199E0,-1.108115662E1,-4.766687622E0,1.258307241E1
8.944631417E0,-3.433260498E0,-1.097188385E1,-4.091741180E0,1.220294468E1
8.954571417E0,-3.376079407E0,-1.072399933E1,-3.237317963E0,1.169967099E1
8.964511417E0,-3.522774353E0,-1.050814819E1,-2.299667816E0,1.131899243E1
8.974452417E0,-3.767216034E0,-1.041803558E1,-9.418414307E-1,1.111820342E1
8.984392417E0,-3.828438721E0,-1.026595184E1,-5.653742981E-1,1.097116030E1
8.994333417E0,-3.696263580E0,-1.005384293E1,-8.289761353E-1,1.074380396E1
9.004273417E0,-3.252885590E0,-9.988428955E0,-1.045126648E0,1.055662197E1
9.014214417E0,-2.712359619E0,-1.000504440E1,-1.318907318E0,1.044975238E1
9.024154417E0,-2.306104431E0,-1.005264542E1,-1.938768311E0,1.049440899E1
9.034095417E0,-2.006726990E0,-1.015488281E1,-2.956501923E0,1.076519864E1
9.044035417E0,-1.588646393E0,-1.003438339E1,-4.119882660E0,1.096294124E1
9.053976417E0,-1.419647827E0,-9.737550659E0,-4.227508850E0,1.071014117E1
9.063916417E0,-1.316212921E0,-9.403595123E0,-3.328029327E0,1.006160012E1
9.073857417E0,-1.363364868E0,-8.950187988E0,-2.405647430E0,9.367591385E0
9.083797417E0,-1.450932770E0,-8.445437622E0,-2.107766876E0,8.824585188E0
9.093738417E0,-1.586850128E0,-8.086633759E0,-2.513423309E0,8.615627406E0
9.103678417E0,-1.643432465E0,-7.900271301E0,-3.099604340E0,8.644229518E0
9.113619417E0,-1.499581604E0,-7.842341766E0,-3.555855560E0,8.740433521E0
9.123559417E0,-1.124910736E0,-7.910749512E0,-3.588637390E0,8.759206603E0
9.133499417E0,-5.547463989E-1,-8.008496246E0,-3.152743835E0,8.624589810E0
9.143440417E0,5.149291992E-2,-8.250692596E0,-2.700234833E0,8.681465774E0
9.153380417E0,6.045927429E-1,-8.614585876E0,-2.495909729E0,8.989226195E0
9.163321417E0,1.210083618E0,-8.973090363E0,-2.381846924E0,9.362363365E0
9.173261417E0,1.762434998E0,-9.351802826E0,-2.119741974E0,9.749651237E0
9.183202417E0,2.109263763E0,-9.680219879E0,-1.682052155E0,1.004912683E1
9.193142417E0,2.406395874E0,-9.908495178E0,-1.060245209E0,1.025149441E1
9.203083417E0,2.443818054E0,-1.001716919E1,-4.239184570E-1,1.031967209E1
9.213023417E0,2.238594818E0,-1.002330643E1,7.469467163E-2,1.027051887E1
9.222964417E0,1.839824066E0,-9.895023193E0,5.557942200E-1,1.007994761E1
9.232904417E0,1.410217438E0,-9.772128754E0,1.191821594E0,9.945031539E0
9.242845417E0,9.005273438E-1,-9.815987549E0,1.960772552E0,1.005033283E1
9.252785417E0,2.872526550E-1,-9.977351990E0,2.654579773E0,1.032844909E1
9.262726417E0,-2.856060791E-1,-1.012359787E1,3.337759094E0,1.066346287E1
9.272666417E0,-9.202862549E-1,-1.027478348E1,3.998634796E0,1.106377795E1
9.282607417E0,-1.610650635E0,-1.051922516E1,4.591701508E0,1.159016894E1
9.292547417E0,-2.412533112E0,-1.085303101E1,4.953648834E0,1.217157487E1
9.302488417E0,-3.069067841E0,-1.113609238E1,4.694687347E0,1.246883395E1
9.312428417E0,-3.448828125E0,-1.120734421E1,3.902235260E0,1.235825310E1
9.322368417E0,-3.652554474E0,-1.123353973E1,3.345393219E0,1.227702020E1
9.332309417E0,-3.783083038E0,-1.108235413E1,3.206631775E0,1.214136638E1
9.342249417E0,-3.992497559E0,-1.046294220E1,3.143762512E0,1.163169975E1
9.352190417E0,-4.338877258E0,-9.549092560E0,3.161126404E0,1.095462207E1
9.362130417E0,-4.743934937E0,-8.916208649E0,2.764301605E0,1.047115365E1
9.372071417E0,-5.083428955E0,-8.617879028E0,1.405427399E0,1.010367829E1
9.382011417E0,-5.376818848E0,-8.471633148E0,-4.194277954E-1,1.004264252E1
9.391952417E0,-5.679489441E0,-8.331674194E0,-2.066153412E0,1.029283173E1
9.401892417E0,-5.931864624E0,-8.176746368E0,-2.950214996E0,1.052378105E1
9.411833417E0,-5.936055908E0,-7.771838379E0,-3.124003601E0,1.026633479E1
9.421773417E0,-5.987848206E0,-7.253017273E0,-2.629132690E0,9.765906225E0
9.431714417E0,-6.356980591E0,-7.232060852E0,-1.361867981E0,9.724638338E0
9.441654417E0,-6.540798340E0,-8.268954620E0,-1.586700439E-2,1.054314494E1
9.451595417E0,-5.914201355E0,-1.087877747E1,2.662962341E-1,1.238533369E1
9.461535417E0,-4.722230072E0,-1.370984024E1,1.742376709E-1,1.450136321E1
9.471476417E0,-3.435954895E0,-1.614572479E1,4.816983032E-1,1.651430436E1
9.481416417E0,-1.884880371E0,-1.795246765E1,1.111588440E0,1.808533930E1
9.491356583E0,1.207987976E-1,-1.761057861E1,1.414408722E0,1.766770001E1
9.501297583E0,1.512754211E0,-1.401984558E1,3.418890381E-1,1.410536719E1
9.511237583E0,1.134939880E0,-1.043749512E1,-8.565188599E-1,1.053389849E1
9.521178583E0,7.306306458E-1,-8.255482635E0,-1.498084717E0,8.422058686E0
9.531118583E0,9.862989807E-1,-6.849456482E0,-1.531465302E0,7.087540176E0
9.541059583E0,1.362017670E0,-5.779032440E0,-1.562001801E0,6.139393920E0
9.550999583E0,1.700463867E0,-5.009632416E0,-1.397344208E0,5.471797250E0
9.560940583E0,1.944755859E0,-4.840933228E0,-1.069226532E0,5.325406580E0
9.570880583E0,2.252964935E0,-5.377866669E0,-7.837701416E-1,5.883162121E0
9.580821583E0,2.366728363E0,-6.499035187E0,-8.961863708E-1,6.974382519E0
9.590761583E0,1.871558075E0,-7.944130096E0,-1.598226471E0,8.316625546E0
9.600702583E0,6.887178040E-1,-9.598190460E0,-2.711162109E0,9.997499303E0
9.610642583E0,-6.982978821E-1,-1.111154343E1,-3.601809998E0,1.170158333E1
9.620583583E0,-1.691632233E0,-1.218795502E1,-3.664828949E0,1.283895784E1
9.630523583E0,-2.470013580E0,-1.297831146E1,-3.340603180E0,1.362707471E1
9.640464583E0,-3.128194885E0,-1.322005875E1,-2.946323090E0,1.390094875E1
9.650404583E0,-3.608695679E0,-1.260828094E1,-2.312391357E0,1.331685348E1
9.660344583E0,-3.953129425E0,-1.131227600E1,-1.442999268E0,1.206967553E1
9.670285583E0,-4.085603943E0,-9.867779846E0,-6.649172974E-1,1.070081089E1
9.680225583E0,-3.653751984E0,-8.698411560E0,-1.643582153E-1,9.436062783E0
9.690166583E0,-2.924917603E0,-8.025710449E0,-9.789642334E-2,8.542643321E0
9.700106583E0,-2.127525787E0,-7.932005310E0,-2.420466614E-1,8.215939435E0
9.710047583E0,-1.448986816E0,-8.226592712E0,-5.210664368E-1,8.369462389E0
9.719987583E0,-9.238787842E-1,-8.728948059E0,-8.735833740E-1,8.821067630E0
9.729928583E0,-4.800517273E-1,-9.365125122E0,-1.128054199E0,9.445026442E0
9.739868583E0,-1.136137390E-1,-9.976753235E0,-1.163530426E0,1.004501450E1
9.749809583E0,1.600172424E-1,-1.039034317E1,-1.124162292E0,1.045220444E1
9.759749583E0,2.739303589E-1,-1.056892181E1,-1.136586456E0,1.063338963E1
9.769690583E0,1.204994202E-1,-1.044527893E1,-1.352287903E0,1.053314078E1
9.779630583E0,-1.362167358E-2,-1.006342300E1,-1.739083557E0,1.021259417E1
9.789571583E0,6.227050781E-2,-9.583970032E0,-2.043101349E0,9.799521535E0
9.799511583E0,2.171983337E-1,-9.170829163E0,-2.355352020E0,9.470953795E0
9.809452583E0,2.938389587E-1,-9.010662231E0,-2.624043274E0,9.389567524E0
9.819392583E0,3.695814514E-1,-9.030271454E0,-2.704126740E0,9.433699932E0
9.829332583E0,4.706213379E-1,-9.063951416E0,-2.518213348E0,9.419028516E0
9.839273583E0,4.475692749E-1,-9.168733521E0,-2.360291748E0,9.478236638E0
9.849213583E0,3.064128113E-1,-9.301657104E0,-2.207459564E0,9.564914606E0
9.859154583E0,2.034269714E-1,-9.349258118E0,-2.075883179E0,9.579107519E0
9.869094583E0,2.020797729E-1,-9.349856873E0,-1.960473175E0,9.555318668E0
9.879035583E0,2.859054565E-1,-9.305249634E0,-1.919308777E0,9.505427863E0
9.888975583E0,4.857398987E-1,-9.222172394E0,-1.888772278E0,9.426126862E0
9.898916583E0,6.155200195E-1,-9.206155701E0,-1.851050720E0,9.410555587E0
9.908856583E0,7.023394775E-1,-9.282646637E0,-1.853445740E0,9.491894987E0
9.918797583E0,5.547463989E-1,-9.468709717E0,-1.949246521E0,9.683169381E0
9.928737583E0,1.567240906E-1,-9.705966339E0,-1.991758118E0,9.909462418E0
9.938678583E0,-2.348616028E-1,-9.977351990E0,-2.064506836E0,1.019141311E1
9.948618583E0,-4.688250732E-1,-1.019709503E1,-2.097138977E0,1.042106213E1
9.958559583E0,-6.065386963E-1,-1.038360718E1,-2.115401001E0,1.061424084E1
9.968499583E0,-7.316784668E-1,-1.053434372E1,-2.080972595E0,1.076281552E1
9.978440583E0,-8.547225952E-1,-1.067175797E1,-1.884880371E0,1.087059073E1
9.988380583E0,-9.818083191E-1,-1.064391586E1,-1.592538300E0,1.080708428E1
9.998321583E0,-1.047371979E0,-1.037432648E1,-1.307381287E0,1.050870514E1
1.000826158E1,-1.103804626E0,-1.002659958E1,-1.072968750E0,1.014407934E1
1.001820158E1,-1.181792450E0,-9.898166656E0,-8.910969543E-1,1.000821614E1
1.002814258E1,-1.103205872E0,-9.954748993E0,-7.717950439E-1,1.004538493E1
1.003808258E1,-1.018631744E0,-1.011042526E1,-7.340734863E-1,1.018808979E1
1.004802358E1,-1.145567780E0,-1.024260040E1,-7.963439941E-1,1.033718300E1
1.005796358E1,-1.370549927E0,-1.036070480E1,-9.205856323E-1,1.049142931E1
1.006790458E1,-1.655557251E0,-1.052790710E1,-1.231489105E0,1.072819944E1
1.007784458E1,-2.079475708E0,-1.071711365E1,-1.708846436E0,1.104992761E1
1.008778558E1,-2.621947632E0,-1.091664871E1,-2.277663574E0,1.145580987E1
1.009772558E1,-3.300037537E0,-1.120719452E1,-2.779270477E0,1.200898835E1
1.010766658E1,-3.937861176E0,-1.160581558E1,-3.054697723E0,1.263063277E1
1.011760658E1,-4.269721069E0,-1.192779602E1,-3.078947296E0,1.303774338E1
1.012754758E1,-4.103117523E0,-1.191926376E1,-2.806513824E0,1.291436959E1
1.013748758E1,-3.615880737E0,-1.172451874E1,-2.230511627E0,1.247052987E1
1.014742858E1,-3.089275818E0,-1.155492142E1,-1.527573395E0,1.205791502E1
1.015736858E1,-2.711461487E0,-1.160596527E1,-8.598120117E-1,1.194946568E1
1.016730858E1,-2.396965485E0,-1.194575867E1,-1.818717957E-1,1.218522347E1
1.017724958E1,-2.025138702E0,-1.225052490E1,4.815486145E-1,1.242611911E1
1.018718958E1,-1.350491638E0,-1.226699066E1,1.090482330E0,1.238919042E1
1.019713058E1,-7.271878052E-1,-1.198033676E1,1.494791565E0,1.209510946E1
1.020707058E1,-4.134402466E-1,-1.164503403E1,1.719174957E0,1.177851064E1
1.021701158E1,-4.569996643E-1,-1.104523132E1,1.904040527E0,1.121745756E1
1.022695158E1,-7.765850830E-1,-1.022493713E1,1.995200958E0,1.044668611E1
1.023689258E1,-1.346899109E0,-9.290879517E0,1.949695587E0,9.588320619E0
1.024683258E1,-1.796414337E0,-8.373287659E0,1.640438690E0,8.719523484E0
1.025677358E1,-2.130968628E0,-7.571554871E0,1.168021088E0,7.951964771E0
1.026671358E1,-2.576142883E0,-7.095993805E0,7.728428650E-1,7.588605032E0
1.027665458E1,-3.061882782E0,-7.010371857E0,1.713935852E-1,7.651785119E0
1.028659458E1,-3.432512054E0,-7.322023773E0,-5.616320801E-1,8.106145923E0
1.029653558E1,-3.711980896E0,-7.908803558E0,-1.066083069E0,8.801392447E0
1.030647558E1,-3.990401917E0,-8.790919189E0,-1.351240082E0,9.748303309E0
1.031641658E1,-3.747008057E0,-9.812844086E0,-2.160008240E0,1.072369405E1
1.032635658E1,-3.092568970E0,-1.074824890E1,-3.589385834E0,1.174617078E1
1.033629658E1,-2.601739655E0,-1.160521683E1,-4.616699524E0,1.275790035E1
1.034623758E1,-2.112856293E0,-1.231848358E1,-4.978646851E0,1.345347999E1
1.035617758E1,-1.653012543E0,-1.292981232E1,-5.200934601E0,1.403432285E1
1.036611858E1,-1.095272369E0,-1.338546478E1,-5.278772736E0,1.443037528E1
1.037605858E1,-5.676196289E-1,-1.340672058E1,-5.180726624E0,1.438409806E1
1.038599958E1,-3.270698547E-1,-1.317081116E1,-5.030738525E0,1.410267958E1
1.039593958E1,-2.664459229E-1,-1.257130783E1,-4.829706573E0,1.346977504E1
1.040588058E1,-4.234693909E-1,-1.179696808E1,-4.418960724E0,1.260456251E1
1.041582058E1,-7.444020081E-1,-1.106693619E1,-3.897145844E0,1.175665585E1
1.042576158E1,-1.150507507E0,-1.048734146E1,-3.075055389E0,1.098926586E1
1.043570158E1,-1.758393402E0,-1.012808853E1,-1.938169556E0,1.046071823E1
1.044564258E1,-2.335892487E0,-9.961185608E0,-6.503974915E-1,1.025205488E1
1.045558258E1,-2.770588531E0,-9.928703156E0,3.980223083E-1,1.031570303E1
1.046552358E1,-2.779869232E0,-1.003168900E1,6.743476868E-1,1.043154839E1
1.047546358E1,-2.313738556E0,-1.012614258E1,2.761756897E-1,1.039078547E1
1.048540358E1,-1.848356323E0,-1.023376877E1,-8.457412720E-1,1.043368212E1
1.049534367E1,-1.917961578E0,-1.055814423E1,-2.619103546E0,1.104593543E1
1.050528367E1,-1.913770294E0,-1.086934708E1,-3.955674133E0,1.172401725E1
1.051522467E1,-1.929487610E0,-1.084824097E1,-3.632945251E0,1.160196301E1
1.052516467E1,-1.766476593E0,-1.048000671E1,-2.094594269E0,1.083228071E1
1.053510567E1,-1.309027863E0,-9.865534515E0,-1.184337158E0,1.002222429E1
1.054504567E1,-7.975415039E-1,-9.216933289E0,-1.397793274E0,9.356375245E0
1.055498667E1,-7.559280396E-2,-8.831634521E0,-1.888173523E0,9.031538177E0
1.056492667E1,7.875123596E-1,-8.664881287E0,-1.871258698E0,8.899547884E0
1.057486767E1,1.569186859E0,-8.497379608E0,-1.325942688E0,8.742192609E0
1.058480767E1,2.233505402E0,-8.288863220E0,-7.324269104E-1,8.615697827E0
1.059474867E1,2.825973358E0,-8.089178467E0,-2.854563904E-1,8.573355180E0
1.060468867E1,3.235821075E0,-7.943381653E0,2.484832764E-1,8.580768850E0
1.061462967E1,3.543281708E0,-7.779023438E0,6.388714600E-1,8.571826389E0
1.062456967E1,3.735332336E0,-7.599846039E0,9.023236084E-1,8.516135002E0
1.063450967E1,3.626209259E0,-7.373217316E0,1.144819336E0,8.296043544E0
1.064445067E1,3.364403687E0,-7.112908630E0,1.291663971E0,7.973774336E0
1.065439067E1,3.093467102E0,-6.911876678E0,1.380279694E0,7.697320960E0
1.066433167E1,2.823877716E0,-6.761439514E0,1.519639893E0,7.483358542E0
1.067427167E1,2.537523193E0,-6.714137878E0,1.669927368E0,7.369350638E0
1.068421267E1,2.120789795E0,-6.823710022E0,1.891766052E0,7.391856777E0
1.069415267E1,1.612746277E0,-7.107070770E0,2.223625946E0,7.619443407E0
1.070409367E1,1.009949799E0,-7.527995453E0,2.642904053E0,8.042117629E0
1.071403367E1,1.556762695E-1,-8.054300995E0,3.106789398E0,8.634126475E0
1.072397467E1,-1.031205597E0,-8.675060120E0,3.561094666E0,9.434057890E0
1.073391467E1,-2.624342651E0,-9.398356018E0,4.232747955E0,1.063637276E1
1.074385567E1,-4.642445984E0,-1.027253815E1,5.139262848E0,1.238908259E1
1.075379567E1,-6.804699554E0,-1.128114075E1,5.676645355E0,1.434546531E1
1.076373667E1,-8.506959686E0,-1.252625153E1,5.312003632E0,1.604657979E1
1.077367667E1,-1.001342697E1,-1.399544632E1,5.115312653E0,1.795292903E1
1.078361667E1,-1.106409210E1,-1.493803619E1,4.841082916E0,1.920924629E1
1.079355767E1,-1.129206802E1,-1.466590210E1,4.128414917E0,1.896426361E1
1.080349767E1,-1.041399399E1,-1.317590057E1,3.271147614E0,1.711011494E1
1.081343867E1,-7.561376038E0,-1.123443787E1,2.793640594E0,1.382719890E1
1.082337867E1,-4.476441193E0,-9.519304504E0,2.450554047E0,1.080096751E1
1.083331967E1,-2.616409149E0,-8.039930878E0,2.487826538E0,8.813362936E0
1.084325967E1,-2.009720764E0,-6.771169281E0,2.864293671E0,7.621803541E0
1.085320067E1,-2.245181122E0,-5.803431702E0,2.911146240E0,6.869893028E0
1.086314067E1,-2.840193787E0,-5.614674225E0,2.536175995E0,6.784058967E0
1.087308167E1,-3.435206451E0,-6.831643524E0,1.570683746E0,7.806346395E0
1.088302167E1,-3.945495300E0,-8.988508301E0,1.029858398E-1,9.816864098E0
1.089296267E1,-4.288581848E0,-1.139056320E1,-8.839118958E-1,1.220320305E1
1.090290267E1,-4.573439484E0,-1.345372284E1,-1.334924011E0,1.427238694E1
1.091284367E1,-5.005441132E0,-1.427536423E1,-1.695673828E0,1.522221319E1
1.092278367E1,-5.382207642E0,-1.377809830E1,-2.024539948E0,1.492993348E1
1.093272367E1,-5.237308960E0,-1.299777100E1,-1.843715973E0,1.413402790E1
1.094266467E1,-5.041815491E0,-1.240111176E1,-1.328188019E0,1.345256703E1
1.095260467E1,-4.836891632E0,-1.168110901E1,1.990859985E-2,1.264295158E1
1.096254567E1,-3.913761292E0,-1.062475571E1,1.395098877E0,1.140829795E1
1.097248567E1,-1.764680328E0,-9.483678589E0,8.800199890E-1,9.686521121E0
1.098242667E1,1.004710693E0,-8.565787354E0,-9.595046997E-2,8.625042786E0
1.099236667E1,3.103196869E0,-7.783813477E0,1.474433899E-1,8.380890323E0
1.100230767E1,4.246968384E0,-7.258705444E0,1.139879608E0,8.486746768E0
1.101224767E1,4.952601013E0,-7.164102173E0,1.785487061E0,8.890476972E0
1.102218867E1,5.230872345E0,-7.181615753E0,1.438508606E0,9.000385399E0
1.103212867E1,5.061275024E0,-7.428153076E0,6.747967529E-1,9.013840117E0
1.104206967E1,4.321213989E0,-7.912845154E0,-4.498146057E-1,9.027089340E0
1.105200967E1,3.363206177E0,-8.437803497E0,-1.938618622E0,9.287945188E0
1.106195067E1,2.532433777E0,-9.032816162E0,-3.516038361E0,1.001835887E1
1.107189067E1,1.529519348E0,-9.630373535E0,-4.841681671E0,1.088693737E1
1.108183067E1,4.302053833E-1,-1.017224670E1,-5.552403717E0,1.159693350E1
1.109177167E1,-4.514611816E-1,-1.054227722E1,-5.638325043E0,1.196386792E1
1.110171167E1,-9.789642334E-1,-1.069900131E1,-5.454207916E0,1.204887480E1
1.111165267E1,-1.765728149E0,-1.082758392E1,-5.000651093E0,1.205657003E1
1.112159267E1,-2.641107788E0,-1.076755875E1,-4.119283905E0,1.182726814E1
1.113153367E1,-3.351829834E0,-1.051413574E1,-2.905458069E0,1.141155118E1
1.114147367E1,-4.069736938E0,-1.014590149E1,-1.452130280E0,1.102772679E1
1.115141467E1,-4.811893616E0,-9.757608948E0,1.377136230E-1,1.088045117E1
1.116135467E1,-5.241051178E0,-9.373208313E0,1.471889191E0,1.083937772E1
1.117129567E1,-5.023254089E0,-9.193881226E0,2.433639221E0,1.075560940E1
1.118123567E1,-4.020339661E0,-9.338779907E0,2.964435425E0,1.059074211E1
1.119117667E1,-2.634072418E0,-9.457932129E0,2.779869232E0,1.020384685E1
1.120111667E1,-1.672472076E0,-9.536967773E0,1.801054688E0,9.848589500E0
1.121105667E1,-1.098565521E0,-9.536219330E0,4.370910645E-1,9.609233784E0
1.122099767E1,-8.888516235E-1,-9.565708008E0,-7.685018921E-1,9.637604581E0
1.123093767E1,-8.541238403E-1,-9.611662445E0,-1.529669037E0,9.770029163E0
1.124087867E1,-8.345146179E-1,-9.687105560E0,-1.974543915E0,9.921454150E0
1.125081867E1,-7.716453552E-1,-9.618697815E0,-2.205363922E0,9.898404631E0
1.126075967E1,-5.354365540E-1,-9.468260651E0,-2.233954468E0,9.742956667E0
1.127069967E1,-2.923420715E-1,-9.377249908E0,-2.113455048E0,9.616910729E0
1.128064067E1,-1.670526123E-1,-9.329499207E0,-1.898801422E0,9.522232347E0
1.129058067E1,-1.706451416E-2,-9.277706909E0,-1.578317871E0,9.411016098E0
1.130052167E1,-2.347119141E-1,-9.147328033E0,-1.125060425E0,9.219244047E0
1.131046167E1,-5.596861267E-1,-9.128616943E0,-5.173242188E-1,9.160377733E0
1.132040267E1,-8.684939575E-1,-9.119036865E0,1.291813660E-1,9.161211870E0
1.133034267E1,-1.226699066E0,-9.159752197E0,5.517526245E-1,9.257984763E0
1.134028367E1,-1.404978333E0,-9.188791809E0,5.517526245E-1,9.311943405E0
1.135022367E1,-1.404828644E0,-9.169481964E0,1.300794983E-1,9.277384528E0
1.136016367E1,-1.205592957E0,-9.297166443E0,-5.620811462E-1,9.391841857E0
1.137010467E1,-9.587562561E-1,-9.511820068E0,-1.282233582E0,9.645623750E0
1.138004467E1,-7.527845764E-1,-9.718989258E0,-1.822759552E0,9.917050428E0
1.138998567E1,-5.596861267E-1,-9.827962646E0,-2.127226410E0,1.007110672E1
1.139992567E1,-4.578977966E-1,-9.877808990E0,-2.179018707E0,1.012565570E1
1.140986667E1,-3.911366272E-1,-9.926008759E0,-2.097588043E0,1.015275890E1
1.141980667E1,-3.740721130E-1,-9.935289459E0,-1.854194183E0,1.011375018E1
1.142974767E1,-4.010160828E-1,-9.930050354E0,-1.436263275E0,1.004139264E1
1.143968767E1,-5.150788879E-1,-9.908794556E0,-9.184899902E-1,9.964594305E0
1.144962867E1,-7.171586609E-1,-9.919721832E0,-4.195774841E-1,9.954458450E0
1.145956867E1,-1.089584198E0,-1.001088226E1,4.385879517E-2,1.007009836E1
1.146950967E1,-1.628164215E0,-1.011820908E1,3.409909058E-1,1.025404059E1
1.147944967E1,-2.240241394E0,-1.006911118E1,4.870870972E-1,1.032680663E1
1.148939021E1,-2.839445343E0,-9.926008759E0,3.466790771E-1,1.032997029E1
1.149933121E1,-3.341351624E0,-9.713450775E0,-1.408570862E-1,1.027305200E1
1.150927121E1,-3.618874512E0,-9.517208862E0,-8.773255920E-1,1.021974645E1
1.151921221E1,-3.766617279E0,-9.520502014E0,-1.670675812E0,1.037393474E1
1.152915221E1,-3.857628021E0,-9.607321472E0,-2.279759216E0,1.060090665E1
1.153909321E1,-3.882925415E0,-9.778715057E0,-2.606829071E0,1.083955422E1
1.154903321E1,-3.782933350E0,-1.012823822E1,-2.749482422E0,1.115578091E1
1.155897421E1,-3.370989990E0,-1.050904633E1,-2.648592224E0,1.134983123E1
1.156891421E1,-2.711910553E0,-1.082174606E1,-2.220033417E0,1.137511297E1
1.157885521E1,-2.168690186E0,-1.119746475E1,-1.646276550E0,1.152374334E1
1.158879521E1,-1.910776520E0,-1.181882263E1,-9.693841553E-1,1.201146706E1
1.159873621E1,-2.061213684E0,-1.271860153E1,-3.426374817E-1,1.288909722E1
1.160867621E1,-2.248025208E0,-1.356119934E1,-6.002517700E-2,1.374639400E1
1.161861721E1,-2.331701202E0,-1.407612854E1,4.939727783E-3,1.426794483E1
1.162855721E1,-2.241139526E0,-1.408211609E1,1.426533508E-1,1.426005084E1
1.163849721E1,-1.992356873E0,-1.354533234E1,2.856060791E-1,1.369405290E1
1.164843821E1,-1.872007141E0,-1.272294250E1,6.771917725E-1,1.287774302E1
1.165837821E1,-1.962568817E0,-1.210622498E1,1.370699615E0,1.234063114E1
1.166831921E1,-2.315834198E0,-1.207987976E1,1.832938385E0,1.243568439E1
1.167825921E1,-2.558629303E0,-1.221744370E1,2.000290375E0,1.264174339E1
1.168820021E1,-2.578388214E0,-1.214828751E1,2.322270813E0,1.263415675E1
1.169814021E1,-2.234104156E0,-1.175325897E1,2.743644562E0,1.227427812E1
1.170808121E1,-1.798659668E0,-1.124536514E1,3.262166290E0,1.184631346E1
1.171802121E1,-1.215771790E0,-1.084255280E1,3.226240997E0,1.137750777E1
1.172796221E1,-1.911524963E-1,-1.041698776E1,2.614612885E0,1.074180496E1
1.173790221E1,1.136586456E0,-9.595496063E0,2.176923065E0,9.904764889E0
1.174784321E1,1.493144989E0,-9.075178070E0,1.677411804E0,9.348906317E0
1.175778321E1,1.277443542E0,-9.106612701E0,8.449928284E-1,9.234515135E0
1.176772321E1,1.214873657E0,-9.390572205E0,-3.487747192E-2,9.468895436E0
1.177766421E1,1.358125763E0,-1.013811768E1,-7.677534485E-1,1.025745490E1
1.178760421E1,1.843266907E0,-1.107801315E1,-1.386716309E0,1.131560827E1
1.179754521E1,2.215842133E0,-1.186552551E1,-2.032174072E0,1.224052219E1
1.180748521E1,2.376607819E0,-1.249766098E1,-2.681972809E0,1.300126043E1
1.181742621E1,2.674638062E0,-1.305120987E1,-2.933898926E0,1.364168357E1
1.182736621E1,2.905009003E0,-1.324415863E1,-2.936443634E0,1.387333833E1
1.183730721E1,2.717299347E0,-1.303579193E1,-2.359692993E0,1.352345141E1
1.184724721E1,1.799408112E0,-1.250574417E1,-1.622775421E0,1.273832434E1
1.185718821E1,6.991960144E-1,-1.178409485E1,-8.674461365E-1,1.183664772E1
1.186712821E1,-3.228785706E-1,-1.095137650E1,1.862127686E-1,1.095771750E1
1.187706921E1,-1.603914642E0,-1.023107437E1,3.118016052E-1,1.036072609E1
1.188700921E1,-2.487078094E0,-9.817783813E0,4.944218445E-1,1.013996496E1
1.189694921E1,-2.817141724E0,-9.479337616E0,1.043929138E0,9.944039279E0
1.190689021E1,-3.109334106E0,-9.049281921E0,8.821156311E-1,9.609140954E0
1.191683021E1,-3.384461975E0,-8.753347321E0,-2.046244812E-1,9.387094511E0
1.192677121E1,-3.162922668E0,-8.507408752E0,-2.047442322E0,9.304413122E0
1.193671121E1,-3.019520874E0,-8.250093842E0,-2.863096161E0,9.240068957E0
1.194665221E1,-2.816243591E0,-8.024662628E0,-1.669478302E0,8.666810028E0
1.195659221E1,-2.151775360E0,-7.650740204E0,5.203179932E-1,7.964589988E0
1.196653321E1,-1.218466187E0,-7.354356537E0,1.059197388E0,7.529483317E0
1.197647321E1,-3.366499329E-1,-7.230863342E0,5.960604858E-1,7.263195299E0
1.198641421E1,3.794609070E-1,-7.029382324E0,2.616558838E-1,7.044477996E0
1.199635421E1,8.063731384E-1,-6.818770294E0,6.092330933E-2,6.866555003E0
1.200629521E1,8.780740356E-1,-6.615343323E0,-6.451583862E-2,6.673675418E0
1.201623521E1,6.712042236E-1,-6.425388336E0,-9.460327148E-2,6.461043272E0
1.202617521E1,4.825964355E-1,-6.204896851E0,-1.917512512E-1,6.226589178E0
1.203611621E1,4.969665527E-1,-6.005661163E0,-3.385958862E-1,6.035692913E0
1.204605621E1,6.586303711E-1,-5.741610260E0,-5.227130127E-1,5.802853715E0
1.205599721E1,8.583151245E-1,-5.404511261E0,-6.667135620E-1,5.512708390E0
1.206593721E1,1.151255951E0,-5.052742767E0,-7.303312683E-1,5.233448528E0
1.207587821E1,1.434317322E0,-4.815186768E0,-7.349716187E-1,5.077742911E0
1.208581821E1,1.525926819E0,-4.775070190E0,-6.418652344E-1,5.053883552E0
1.209575921E1,1.508113861E0,-4.813390503E0,-5.978567505E-1,5.079425976E0
1.210569921E1,1.427281952E0,-4.866979065E0,-6.620732117E-1,5.114974089E0
1.211564021E1,1.280437317E0,-4.985532532E0,-7.583230591E-1,5.202894215E0
1.212558021E1,9.934840393E-1,-5.320386200E0,-7.885601807E-1,5.469492391E0
1.213552121E1,2.303709412E-1,-5.831722870E0,-6.840774536E-1,5.876225350E0
1.214546121E1,-5.475613403E-1,-6.592740326E0,-2.401007080E-1,6.619795826E0
1.215540121E1,-1.447639618E0,-7.946225739E0,1.369053040E0,8.192220101E0
1.216534221E1,-2.800825653E0,-9.886790314E0,4.182452545E0,1.109442005E1
1.217528221E1,-4.984784088E0,-1.216340607E1,7.342531128E0,1.505686830E1
1.218522321E1,-8.259224854E0,-1.507215729E1,9.894274750E0,1.983132354E1
1.219516321E1,-1.186762115E1,-1.806428513E1,9.623338165E0,2.365940545E1
1.220510421E1,-1.533650757E1,-1.991159363E1,7.673343201E0,2.627851254E1
1.221504421E1,-1.816577408E1,-1.929861832E1,6.060896301E0,2.718761631E1
1.222498521E1,-1.908606033E1,-1.620200775E1,5.310656433E0,2.559269087E1
1.223492521E1,-1.629646133E1,-1.185669388E1,5.424419861E0,2.087055755E1
1.224486621E1,-1.135748199E1,-9.123677216E0,6.087690582E0,1.578904240E1
1.225480621E1,-7.328909454E0,-8.944499817E0,6.538253632E0,1.328404123E1
1.226474721E1,-4.342619476E0,-8.918304291E0,6.811734924E0,1.203304733E1
1.227468721E1,-2.111658783E0,-8.876690826E0,5.724396057E0,1.077141834E1
1.228462721E1,-6.997947693E-1,-9.388775940E0,3.685336304E0,1.011041691E1
1.229456821E1,-2.252815247E-1,-1.052251831E1,1.997595978E0,1.071282097E1
1.230450821E1,-2.290237427E-1,-1.154998169E1,8.566685486E-1,1.158397211E1
1.231444921E1,-2.142045593E-1,-1.196806229E1,1.128652954E-1,1.197051114E1
1.232438921E1,-3.092568970E-1,-1.196446976E1,-3.206332397E-1,1.197276000E1
1.233433021E1,-7.059320068E-1,-1.188857758E1,-6.957531738E-1,1.192982352E1
1.234427021E1,-1.063688049E0,-1.175266022E1,-1.845362549E0,1.194411225E1
1.235421121E1,-7.866142273E-1,-1.137888748E1,-3.055146790E0,1.180812280E1
1.236415121E1,-2.279759216E-1,-1.068867279E1,-2.386786652E0,1.095428909E1
1.237409221E1,-1.306483154E0,-9.797575836E0,1.124162292E-1,9.884939449E0
1.238403221E1,-2.843337250E0,-8.924740906E0,1.345851288E0,9.462921464E0
1.239397221E1,-2.622247009E0,-7.859106903E0,9.303153992E-1,8.337099462E0
1.240391321E1,-1.107097778E0,-7.093299408E0,4.176315308E-2,7.179297051E0
1.241385321E1,2.197430420E-1,-6.924600220E0,-3.451821899E-1,6.936679750E0
1.242379421E1,1.268761597E0,-7.069349213E0,-3.549119568E-1,7.191065066E0
1.243373421E1,1.910776520E0,-7.455246735E0,-5.292993164E-1,7.714397485E0
1.244367521E1,2.135309601E0,-7.951015778E0,-9.407936096E-1,8.286331613E0
1.245361521E1,2.197879486E0,-8.511300659E0,-1.345851288E0,8.892931397E0
1.246355621E1,2.152374115E0,-9.233249359E0,-1.642384644E0,9.622007866E0
1.247349621E1,1.868863678E0,-1.018571869E1,-1.875599670E0,1.052422875E1
1.248343721E1,1.314716034E0,-1.113115265E1,-2.293829956E0,1.144083447E1
1.249337733E1,1.078357544E0,-1.154234756E1,-2.539768524E0,1.186756363E1
1.250331833E1,8.195457458E-1,-1.145956970E1,-2.740201721E0,1.181110065E1
1.251325833E1,1.257385254E-1,-1.125853775E1,-3.658092957E0,1.183858634E1
1.252319833E1,-3.252735901E-1,-1.078567108E1,-3.837869110E0,1.145276137E1
1.253313933E1,-3.861968994E-1,-1.008527756E1,-3.102747803E0,1.055883589E1
1.254307933E1,-5.125341797E-1,-9.482331390E0,-2.312990112E0,9.773802901E0
1.255302033E1,-8.439450073E-1,-9.135053558E0,-1.516795807E0,9.298500751E0
1.256296033E1,-1.231040039E0,-9.025331726E0,-8.484356689E-1,9.148328559E0
1.257290133E1,-1.683698730E0,-9.154513092E0,-3.779640198E-1,9.315729073E0
1.258284133E1,-2.243384857E0,-9.409133606E0,-4.445755005E-2,9.672980270E0
1.259278233E1,-2.659968567E0,-9.644593964E0,-3.038681030E-2,1.000472633E1
1.260272233E1,-2.686313782E0,-9.512269135E0,-7.791297913E-1,9.914967930E0
1.261266333E1,-3.430715790E0,-7.725734253E0,-2.650238800E0,8.858924668E0
1.262260333E1,-6.510710907E0,-1.045396088E1,-1.747166748E0,1.243894072E1
1.263254333E1,-5.792055359E0,-1.120614670E1,-8.586145020E-1,1.264368807E1
1.264248433E1,-4.255650330E0,-1.091125992E1,-2.894979858E-1,1.171537288E1
1.265242433E1,-2.699785767E0,-1.073417816E1,4.746629333E-1,1.107866097E1
1.266236533E1,-9.505233765E-1,-1.007914032E1,1.051114197E0,1.017828106E1
1.267230533E1,7.364685059E-1,-8.880133667E0,9.678872681E-1,8.963033279E0
1.268224633E1,1.728156281E0,-8.030949554E0,4.269122314E-1,8.225869494E0
1.269218633E1,1.643432465E0,-7.333549805E0,-5.647755432E-1,7.536630177E0
1.270212733E1,1.905387726E0,-7.412585449E0,-1.698517914E0,7.839763296E0
1.271206733E1,2.577340393E0,-8.142317963E0,-2.197430420E0,8.818657821E0
1.272200833E1,2.315085754E0,-9.225166168E0,-2.325713654E0,9.791437937E0
1.273194833E1,2.070195007E0,-9.916877747E0,-2.242037659E0,1.037578452E1
1.274188833E1,8.449928284E-1,-1.064556244E1,-2.217339020E0,1.090681461E1
1.275182933E1,-3.107537842E-1,-1.099778000E1,-1.965861969E0,1.117641920E1
1.276176933E1,-1.024619293E0,-1.099059494E1,-1.708547058E0,1.116969807E1
1.277171033E1,-1.639091492E0,-1.081875229E1,-1.489552460E0,1.104313309E1
1.278165033E1,-2.196532288E0,-1.057910065E1,-1.167272644E0,1.086759633E1
1.279159133E1,-2.543061676E0,-1.027373566E1,-8.292755127E-1,1.061623779E1
1.280153133E1,-2.758164368E0,-9.947414246E0,-6.004014587E-1,1.034016454E1
1.281147233E1,-2.841241608E0,-9.625134430E0,-4.463717651E-1,1.004565152E1
1.282141233E1,-2.902464294E0,-9.372759247E0,-3.403921509E-1,9.817778858E0
1.283135333E1,-2.909649353E0,-9.208101654E0,-3.165916443E-1,9.662061152E0
1.284129333E1,-2.995870056E0,-9.209448853E0,-3.174897766E-1,9.689684480E0
1.285123333E1,-3.098855896E0,-9.276359711E0,-3.275189209E-1,9.785756281E0
1.286117433E1,-3.023412781E0,-9.259594574E0,-3.637435913E-1,9.747483056E0
1.287111433E1,-2.521356812E0,-9.047934723E0,-3.603007507E-1,9.399584010E0
1.288105533E1,-1.885928192E0,-8.896898804E0,-3.805087280E-1,9.102544719E0
1.289099533E1,-1.550326080E0,-9.055119781E0,-4.736151123E-1,9.199076937E0
1.290093633E1,-1.380279694E0,-9.367969208E0,-6.553372192E-1,9.491758845E0
1.291087633E1,-1.347647552E0,-9.662706299E0,-8.696914673E-1,9.794917569E0
1.292081733E1,-1.357227631E0,-9.851763153E0,-1.111738129E0,1.000676100E1
1.293075733E1,-1.364263000E0,-9.914632416E0,-1.330882416E0,1.009615756E1
1.294069833E1,-1.359772339E0,-9.873018951E0,-1.448687439E0,1.007095722E1
1.295063833E1,-1.480122070E0,-9.773625641E0,-1.503473511E0,9.998747527E0
1.296057933E1,-1.601968689E0,-9.695039063E0,-1.575922852E0,9.952066064E0
1.297051933E1,-1.627715149E0,-9.622589722E0,-1.624421997E0,9.893555295E0
1.298045933E1,-1.618733826E0,-9.536668396E0,-1.661245422E0,9.814686936E0
1.299040033E1,-1.700014801E0,-9.503736877E0,-1.705852661E0,9.804131693E0
1.300034033E1,-1.874701538E0,-9.579329681E0,-1.647923126E0,9.899177422E0
1.301028133E1,-2.145638123E0,-9.789642334E0,-1.529219971E0,1.013801626E1
1.302022133E1,-2.475402374E0,-1.006477020E1,-1.381177826E0,1.045633149E1
1.303016233E1,-2.737507324E0,-1.039213943E1,-1.165177002E0,1.080963209E1
1.304010233E1,-2.969973907E0,-1.061951660E1,-9.056167603E-1,1.106413212E1
1.305004333E1,-3.126697998E0,-1.083881058E1,-5.101391602E-1,1.129231141E1
1.305998333E1,-3.489244080E0,-1.132709518E1,-4.070036316E-1,1.185932382E1
1.306992433E1,-4.073778534E0,-1.216505264E1,4.849914551E-2,1.282912817E1
1.307986433E1,-4.565056915E0,-1.303698944E1,9.939331055E-1,1.384885343E1
1.308980433E1,-4.772375793E0,-1.365295853E1,2.127525787E0,1.461865976E1
1.309974533E1,-4.575235748E0,-1.379680939E1,3.324586487E0,1.491098946E1
1.310968533E1,-3.851790161E0,-1.329774719E1,4.811743927E0,1.465671339E1
1.311962633E1,-3.168161774E0,-1.258028915E1,6.584357758E0,1.454835700E1
1.312956633E1,-2.856060791E0,-1.232851273E1,8.149353333E0,1.505195233E1
1.313950733E1,-2.497556305E0,-1.233599716E1,8.326584778E0,1.509127654E1
1.314944733E1,-1.944905548E0,-1.210862000E1,6.155948639E0,1.372213684E1
1.315938833E1,-9.117539978E-1,-1.158171570E1,3.745211792E0,1.220631170E1
1.316932833E1,-1.047821045E-3,-1.128787674E1,2.370171204E0,1.153403112E1
1.317926933E1,5.899232483E-1,-1.118429214E1,9.081614685E-1,1.123659902E1
1.318920933E1,1.415456543E0,-1.145462997E1,2.912942505E-1,1.154542842E1
1.319914933E1,2.188748474E0,-1.246547791E1,3.330574036E-1,1.266055633E1
1.320909033E1,3.054548035E0,-1.339758957E1,-3.972738647E-1,1.374712684E1
1.321903033E1,3.309767303E0,-1.373992767E1,-1.990111542E0,1.427237598E1
1.322897133E1,3.383114777E0,-1.375399841E1,-3.510050812E0,1.459240880E1
1.323891133E1,3.070415039E0,-1.384650604E1,-4.569996643E0,1.490094116E1
1.324885233E1,2.731669464E0,-1.399529663E1,-4.649032288E0,1.499812812E1
1.325879233E1,2.435285797E0,-1.387479721E1,-3.544479218E0,1.452597492E1
1.326873333E1,1.983525238E0,-1.305899368E1,-1.965263214E0,1.335417343E1
1.327867333E1,1.076710968E0,-1.216520233E1,-7.670050049E-1,1.223681948E1
1.328861333E1,-4.668791199E-1,-1.137170242E1,-6.026467896E-1,1.139722665E1
1.329855433E1,-1.663341064E0,-1.039528290E1,-6.827302551E-1,1.054963178E1
1.330849433E1,-2.204316101E0,-9.695188751E0,1.794767761E-1,9.944239856E0
1.331843533E1,-2.641257477E0,-9.250613251E0,6.340814209E-1,9.641169318E0
1.332837533E1,-3.069067841E0,-8.762328644E0,1.420545959E-1,9.285351915E0
1.333831633E1,-3.008892975E0,-8.154143372E0,-5.493576050E-1,8.708919843E0
1.334825633E1,-3.149750061E0,-7.566166077E0,-1.314117279E0,8.300283054E0
1.335819733E1,-3.148702240E0,-7.043453064E0,-1.453178101E0,7.850877878E0
1.336813733E1,-2.652184753E0,-6.553970947E0,-4.650828552E-1,7.085543113E0
1.337807833E1,-1.785936127E0,-6.175557861E0,3.860472107E-1,6.440195276E0
1.338801833E1,-1.024918671E0,-6.024671631E0,1.737886047E-1,6.113700109E0
1.339795833E1,-4.144880676E-1,-5.935756531E0,-4.740641785E-1,5.969065488E0
1.340789933E1,5.239105225E-2,-5.857918396E0,-9.957293701E-1,5.942173822E0
1.341783933E1,3.631448364E-1,-5.738766174E0,-1.080004120E0,5.850788005E0
1.342778033E1,5.056484985E-1,-5.580096130E0,-8.405021667E-1,5.665650635E0
1.343772033E1,4.126918030E-1,-5.347030792E0,-5.861810303E-1,5.394873587E0
1.344766133E1,1.213975525E-1,-5.109474792E0,-3.983216858E-1,5.126414945E0
1.345760133E1,-1.324745178E-1,-4.971611481E0,-3.817062378E-1,4.988002593E0
1.346754233E1,-1.754351807E-1,-4.982838135E0,-5.438191223E-1,5.015495251E0
1.347748233E1,-9.310638428E-2,-5.053640900E0,-7.521858215E-1,5.110160335E0
1.348742333E1,-7.274871826E-2,-5.187163239E0,-8.292755127E-1,5.253537162E0
1.349736346E1,-9.699829102E-2,-5.421426086E0,-7.249424744E-1,5.470540291E0
1.350730446E1,-1.682501221E-1,-5.667065277E0,-6.623725891E-1,5.708123545E0
1.351724446E1,-2.830613708E-1,-5.908812561E0,-6.659651184E-1,5.952957178E0
1.352718446E1,-4.567002869E-1,-6.133195953E0,-7.153623962E-1,6.191640422E0
1.353712546E1,-5.583389282E-1,-6.362369385E0,-7.583230591E-1,6.431682549E0
1.354706546E1,-6.816824341E-1,-6.528972931E0,-7.226971436E-1,6.604125198E0
1.355700646E1,-1.056053925E0,-6.735393677E0,-4.626878357E-1,6.833363587E0
1.356694646E1,-1.642534332E0,-7.102879486E0,-2.844085693E-3,7.290324006E0
1.357688746E1,-2.305655365E0,-7.761958923E0,9.024732971E-1,8.147300844E0
1.358682746E1,-3.194207611E0,-8.947044525E0,2.945125580E0,9.946171760E0
1.359676846E1,-4.399650879E0,-1.038315811E1,5.230872345E0,1.243096640E1
1.360670846E1,-6.314618683E0,-1.225980560E1,6.454427948E0,1.522619068E1
1.361664846E1,-8.732540588E0,-1.456126968E1,7.030879211E0,1.837718973E1
1.362658946E1,-1.122171432E1,-1.661275360E1,7.574548645E0,2.143091789E1
1.363652946E1,-1.362122452E1,-1.770757690E1,8.613687744E0,2.394350964E1
1.364647046E1,-1.602253098E1,-1.733784576E1,9.842632141E0,2.557732985E1
1.365641046E1,-1.684327423E1,-1.577674210E1,9.701475677E0,2.503437853E1
1.366635146E1,-1.423958862E1,-1.392164978E1,8.212521973E0,2.154121013E1
1.367629146E1,-9.503587189E0,-1.230665817E1,6.779551849E0,1.696273351E1
1.368623246E1,-6.162684631E0,-1.116752701E1,5.363795929E0,1.383700286E1
1.369617246E1,-4.074077911E0,-9.805808716E0,4.489763489E0,1.152865871E1
1.370611346E1,-2.452500000E0,-8.499475250E0,3.912414093E0,9.672787593E0
1.371605346E1,-1.252295837E0,-7.785310364E0,3.146157532E0,8.489853328E0
1.372599346E1,-6.418652344E-1,-7.991731110E0,2.003284149E0,8.263952111E0
1.373593446E1,-8.764274597E-1,-8.962312775E0,4.041595459E-1,9.014128926E0
1.374587446E1,-1.317111053E0,-9.822573853E0,-7.830216980E-1,9.941371213E0
1.375581546E1,-1.807341614E0,-1.082039886E1,-1.245709534E0,1.104080194E1
1.376575546E1,-2.910397797E0,-1.216565140E1,-2.180216217E0,1.269751283E1
1.377569646E1,-4.172273712E0,-1.329385529E1,-4.345164185E0,1.459503025E1
1.378563646E1,-4.346361694E0,-1.316497330E1,-6.472689972E0,1.530042801E1
1.379557746E1,-3.423081665E0,-1.211445786E1,-5.413342896E0,1.370335209E1
1.380551746E1,-3.081042938E0,-1.121647522E1,-1.466949463E0,1.172408131E1
1.381545746E1,-3.011587372E0,-9.391170959E0,1.855242004E0,1.003522164E1
1.382539846E1,-1.167272644E0,-7.465126190E0,2.620600433E0,7.997385891E0
1.383533846E1,7.429051208E-1,-6.655160522E0,2.665656738E0,7.207551279E0
1.384527946E1,2.226619720E0,-6.249504089E0,2.810106354E0,7.204917381E0
1.385521946E1,3.263363800E0,-6.206393738E0,3.152145081E0,7.687970157E0
1.386516046E1,3.687282257E0,-7.091952209E0,2.696043549E0,8.435667573E0
1.387510046E1,3.846700745E0,-8.123606873E0,1.585353241E0,9.127071827E0
1.388504146E1,3.748355255E0,-8.867559814E0,2.643502808E-1,9.630870431E0
1.389498146E1,3.396437073E0,-9.566755829E0,-1.141376495E0,1.021573992E1
1.390492146E1,2.709066467E0,-1.033660492E1,-2.589614868E0,1.099502376E1
1.391486246E1,1.520837402E0,-1.100631226E1,-3.861519928E0,1.176278845E1
1.392480246E1,5.529501343E-1,-1.168904251E1,-4.835394745E0,1.266177361E1
1.393474346E1,2.770738220E-1,-1.190624084E1,-5.695955200E0,1.320148653E1
1.394468346E1,9.729766846E-2,-1.152213959E1,-6.172863464E0,1.307185568E1
1.395462446E1,-4.966671753E-1,-1.069570816E1,-6.001469879E0,1.227446504E1
1.396456446E1,-7.518864441E-1,-9.765392761E0,-5.253026276E0,1.111406829E1
1.397450546E1,-8.042774963E-1,-9.112001495E0,-4.398453369E0,1.014996678E1
1.398444546E1,-1.061143341E0,-8.802445221E0,-3.445534973E0,9.512138472E0
1.399438646E1,-1.847308502E0,-9.019942932E0,-2.073787537E0,9.437823581E0
1.400432646E1,-2.977907410E0,-9.492659912E0,-3.668870544E-1,9.955557787E0
1.401426646E1,-3.733087006E0,-9.708061981E0,1.010548553E0,1.045005332E1
1.402420746E1,-3.584296417E0,-9.949509888E0,1.891466675E0,1.074325714E1
1.403414746E1,-2.725981293E0,-1.019215530E1,2.242037659E0,1.078599725E1
1.404408846E1,-1.732497253E0,-1.018751495E1,1.837429047E0,1.049586362E1
1.405402846E1,-1.096918945E0,-9.960736542E0,9.753717041E-1,1.006830937E1
1.406396946E1,-8.509803772E-1,-9.649533691E0,9.295669556E-2,9.687430465E0
1.407390946E1,-9.048683167E-1,-9.350006561E0,-5.376818848E-1,9.409065372E0
1.408385046E1,-1.116228790E0,-9.081464996E0,-8.318202209E-1,9.187540371E0
1.409379046E1,-1.297950897E0,-8.885821838E0,-8.922944641E-1,9.024339072E0
1.410373146E1,-1.421294403E0,-8.841963043E0,-8.812174988E-1,8.998718382E0
1.411367146E1,-1.451980591E0,-8.820707245E0,-8.837622070E-1,8.982992796E0
1.412361146E1,-1.333427124E0,-8.860225067E0,-8.640032959E-1,9.001561966E0
1.413355246E1,-1.164578247E0,-8.842561798E0,-9.472302246E-1,8.969079481E0
1.414349246E1,-1.196461945E0,-8.946445770E0,-1.158590698E0,9.100150851E0
1.415343346E1,-1.460961914E0,-9.119635620E0,-1.449136505E0,9.348912245E0
1.416337346E1,-1.708996124E0,-9.281299438E0,-1.659299469E0,9.582090677E0
1.417331446E1,-1.752106476E0,-9.453591156E0,-1.744622040E0,9.771589886E0
1.418325446E1,-1.786235504E0,-9.706116028E0,-1.804946594E0,1.003280409E1
1.419319546E1,-1.885628815E0,-9.756561127E0,-1.845961304E0,1.010710909E1
1.420313546E1,-2.025887146E0,-9.639354858E0,-1.793270874E0,1.001185304E1
1.421307546E1,-2.110161896E0,-9.466913452E0,-1.572629700E0,9.825904422E0
1.422301646E1,-2.033221893E0,-9.289831696E0,-1.270857239E0,9.594271328E0
1.423295646E1,-1.870659943E0,-9.184750214E0,-9.253756714E-1,9.418881316E0
1.424289746E1,-1.616338806E0,-9.225914612E0,-5.300477600E-1,9.381417920E0
1.425283746E1,-1.203647003E0,-9.436526642E0,-9.235794067E-2,9.513428991E0
1.426277846E1,-8.283773804E-1,-9.752968597E0,3.755690002E-1,9.795287521E0
1.427271846E1,-4.650828552E-1,-1.005668701E1,7.370672607E-1,1.009438081E1
1.428265946E1,-2.281256104E-1,-1.033106644E1,9.713301086E-1,1.037913567E1
1.429259946E1,-1.700463867E-1,-1.048135391E1,9.734257507E-1,1.052783232E1
1.430253946E1,-1.766326904E-1,-1.049587372E1,7.177574158E-1,1.052186960E1
1.431248046E1,-3.192860413E-1,-1.046428940E1,2.888992310E-1,1.047314465E1
1.432242046E1,-8.834628296E-1,-1.038809784E1,-2.936892700E-1,1.042973330E1
1.433236146E1,-1.612596588E0,-1.033525772E1,-1.030756531E0,1.051096946E1
1.434230146E1,-2.086211700E0,-1.030621811E1,-1.636097717E0,1.064176803E1
1.435224246E1,-2.461631012E0,-1.026191025E1,-1.936522980E0,1.072923811E1
1.436218246E1,-2.837349701E0,-1.017628830E1,-2.021246796E0,1.075606041E1
1.437212346E1,-3.232078857E0,-1.015428406E1,-2.008223877E0,1.084383611E1
1.438206346E1,-3.583697662E0,-1.022358994E1,-1.969005432E0,1.101097918E1
1.439200446E1,-3.840114441E0,-1.027792694E1,-1.848206635E0,1.112646075E1
1.440194446E1,-3.959266663E0,-1.035531601E1,-1.628912659E0,1.120543255E1
1.441188446E1,-3.705244904E0,-1.043345352E1,-1.335822144E0,1.115213939E1
1.442182546E1,-3.161276093E0,-1.049871780E1,-8.981323242E-1,1.100106285E1
1.443176546E1,-2.543510742E0,-1.069286407E1,-1.651066589E-1,1.099245419E1
1.444170646E1,-2.402653656E0,-1.121752304E1,7.637118530E-1,1.149733985E1
1.445164646E1,-2.662513275E0,-1.196611633E1,9.322613525E-1,1.229414610E1
1.446158746E1,-3.201093292E0,-1.265962418E1,5.111869812E-1,1.306806775E1
1.447152746E1,-3.738326111E0,-1.324790085E1,4.349954224E-1,1.377211603E1
1.448146846E1,-4.053121490E0,-1.332528992E1,4.471202087E-1,1.393524530E1
1.449140817E1,-4.355343018E0,-1.286320084E1,8.346643066E-1,1.360616085E1
1.450134817E1,-4.444707184E0,-1.233315308E1,1.324595490E0,1.317636672E1
1.451128917E1,-4.173920288E0,-1.186298080E1,1.651665344E0,1.268384494E1
1.452122917E1,-3.544778595E0,-1.139490417E1,2.084265747E0,1.211418425E1
1.453117017E1,-3.189866638E0,-1.106169708E1,2.790347443E0,1.184577690E1
1.454111017E1,-3.007845154E0,-1.092009155E1,3.376678162E0,1.181936916E1
1.455105117E1,-2.619253235E0,-1.077145065E1,3.812122650E0,1.172249614E1
1.456099117E1,-2.051034851E0,-1.053928345E1,3.156635742E0,1.119140692E1
1.457093217E1,-1.408570862E0,-1.023302032E1,1.662891998E0,1.046250384E1
1.458087217E1,-9.033714294E-1,-1.000534378E1,5.616320801E-1,1.006173020E1
1.459081217E1,-8.896000671E-1,-1.032163605E1,-2.653981018E-1,1.036330040E1
1.460075317E1,-9.029223633E-1,-1.105690704E1,-1.216370544E0,1.116019800E1
1.461069317E1,-6.382727051E-1,-1.200713104E1,-2.051334229E0,1.219780964E1
1.462063417E1,-1.598675537E-1,-1.307246567E1,-2.655926971E0,1.334049716E1
1.463057417E1,1.878593445E-1,-1.390413620E1,-3.106939087E0,1.424827586E1
1.464051517E1,2.522254944E-1,-1.458551926E1,-3.399580536E0,1.497858930E1
1.465045517E1,3.014730835E-1,-1.526765076E1,-3.695664825E0,1.571146028E1
1.466039617E1,5.948629761E-1,-1.545940201E1,-3.903732147E0,1.595575436E1
1.467033617E1,1.080303497E0,-1.486738312E1,-4.052522736E0,1.544762367E1
1.468027617E1,1.547032928E0,-1.332199677E1,-3.393293610E0,1.383413713E1
1.469021717E1,1.401236115E0,-1.183932999E1,-1.785636749E0,1.205494487E1
1.470015717E1,6.732998657E-1,-1.093970078E1,-3.233276367E-1,1.096516879E1
1.471009817E1,-2.938389587E-1,-1.039318726E1,8.882528687E-1,1.043521326E1
1.472003817E1,-1.311123505E0,-9.973011017E0,1.479074249E0,1.016698845E1
1.472997917E1,-2.106120300E0,-9.614356842E0,1.543141022E0,9.962574186E0
1.473991917E1,-2.713407440E0,-9.236093445E0,8.000862122E-1,9.659613864E0
1.474986017E1,-2.735261993E0,-8.683742065E0,-2.134561157E-1,9.106843468E0
1.475980017E1,-2.189047852E0,-8.258476410E0,-9.545649719E-1,8.596834150E0
1.476974017E1,-1.643582153E0,-8.012986908E0,-1.347647552E0,8.290082955E0
1.477968117E1,-1.437610474E0,-7.823181610E0,-1.583257599E0,8.110215719E0
1.478962117E1,-1.190175018E0,-7.590715027E0,-1.584604797E0,7.845154145E0
1.479956217E1,-5.583389282E-1,-7.407346344E0,-1.392703857E0,7.557787127E0
1.480950217E1,-2.469863892E-2,-7.129374390E0,-1.193318481E0,7.228595867E0
1.481944317E1,1.902543640E-1,-6.761140137E0,-1.130149841E0,6.857583491E0
1.482938317E1,3.484753418E-1,-6.447991333E0,-1.156345367E0,6.560119046E0
1.483932417E1,5.312452698E-1,-6.112688599E0,-1.004111938E0,6.217348649E0
1.484926417E1,7.593708801E-1,-5.765560455E0,-1.021924896E0,5.904461194E0
1.485920417E1,1.036744080E0,-5.476212158E0,-1.208137665E0,5.702923330E0
1.486914517E1,1.424138489E0,-5.185666351E0,-1.178499298E0,5.505285328E0
1.487908517E1,1.925895081E0,-4.914131012E0,-1.126407623E0,5.396901852E0
1.488902617E1,2.403551788E0,-4.617447968E0,-1.107696533E0,5.322112226E0
1.489896617E1,2.786006470E0,-4.388723602E0,-1.008003845E0,5.295167482E0
1.490890717E1,3.004402313E0,-4.316873016E0,-8.131091309E-1,5.321933141E0
1.491884717E1,2.978057098E0,-4.409680023E0,-6.045927429E-1,5.355336999E0
1.492878817E1,2.753973083E0,-4.690496063E0,-3.592529297E-1,5.451071797E0
1.493872817E1,2.408940582E0,-5.022505646E0,-5.523513794E-2,5.570602177E0
1.494866817E1,1.863624573E0,-5.429658966E0,2.344125366E-1,5.745367027E0
1.495860917E1,1.073118439E0,-6.060596924E0,5.426216125E-1,6.178742305E0
1.496854917E1,1.284329224E-1,-6.913523254E0,1.120719452E0,7.004949029E0
1.497849017E1,-9.391470337E-1,-7.944579163E0,2.202819214E0,8.297635067E0
1.498843017E1,-2.433190155E0,-9.280251617E0,4.327500916E0,1.052476834E1
1.499837117E1,-4.765190735E0,-1.094059891E1,7.300019531E0,1.398906832E1
1.500831117E1,-7.998616791E0,-1.290511368E1,9.431437225E0,1.787377514E1
1.501825217E1,-1.116617981E1,-1.490375748E1,8.675209808E0,2.054421631E1
1.502819217E1,-1.349503693E1,-1.657742706E1,5.850583649E0,2.216204951E1
1.503813217E1,-1.553095322E1,-1.742301865E1,3.565884705E0,2.361117575E1
1.504807317E1,-1.682141968E1,-1.651006714E1,3.484454041E0,2.382611796E1
1.505801317E1,-1.483864288E1,-1.366942429E1,4.722379761E0,2.072050563E1
1.506795417E1,-1.212284042E1,-1.100930603E1,5.491031342E0,1.727192822E1
1.507789417E1,-9.561217346E0,-1.029978149E1,4.814138947E0,1.485524519E1
1.508783517E1,-6.745273132E0,-9.849517822E0,4.001179504E0,1.259051819E1
1.509777517E1,-4.568350067E0,-9.546547852E0,3.706891479E0,1.121371672E1
1.510771617E1,-3.425925751E0,-9.431137848E0,3.365451508E0,1.058345842E1
1.511765617E1,-2.991229706E0,-9.704170074E0,2.426753540E0,1.044066591E1
1.512759617E1,-2.854563904E0,-1.106409210E1,1.027014313E0,1.147246388E1
1.513753717E1,-3.195255432E0,-1.323951828E1,5.038522339E-1,1.362895332E1
1.514747717E1,-4.084705811E0,-1.485795273E1,1.065634003E0,1.544600779E1
1.515741817E1,-4.796625366E0,-1.536195465E1,1.280437317E0,1.614424930E1
1.516735817E1,-4.326602783E0,-1.437894882E1,1.889071655E-1,1.501696863E1
1.517729917E1,-2.376009064E0,-1.187121368E1,-8.756790161E-1,1.213828436E1
1.518723917E1,-3.891906738E-2,-9.047785034E0,-1.247954865E0,9.133527252E0
1.519717917E1,1.474134521E0,-7.082222443E0,-1.436263275E0,7.375215218E0
1.520712017E1,2.370620270E0,-5.700146484E0,-1.088686066E0,6.268711810E0
1.521706017E1,3.213517456E0,-4.923411713E0,-3.400927734E-1,5.889171455E0
1.522700117E1,4.017495575E0,-4.958139496E0,7.150630188E-1,6.421427651E0
1.523694117E1,4.494553528E0,-5.950875092E0,1.611548767E0,7.629614355E0
1.524688217E1,4.356839905E0,-7.322921906E0,1.169218597E0,8.600832013E0
1.525682217E1,3.926933899E0,-8.298742676E0,-7.559280396E-2,9.181266477E0
1.526676317E1,3.435655518E0,-8.940458221E0,-1.468895416E0,9.689849111E0
1.527670317E1,2.866539001E0,-9.475445709E0,-2.704725494E0,1.026239043E1
1.528664317E1,2.120490417E0,-1.021865021E1,-3.603306885E0,1.104088367E1
1.529658417E1,1.183738403E0,-1.109432922E1,-4.218826904E0,1.192828060E1
1.530652417E1,2.279759216E-1,-1.187256088E1,-4.525539093E0,1.270787862E1
1.531646517E1,-7.439529419E-1,-1.212209198E1,-4.654271393E0,1.300618400E1
1.532640517E1,-1.890269165E0,-1.196806229E1,-4.474046173E0,1.291606448E1
1.533634617E1,-2.988086243E0,-1.161419815E1,-3.882326660E0,1.260518617E1
1.534628617E1,-3.775598602E0,-1.092383377E1,-2.774929504E0,1.188635869E1
1.535622717E1,-4.313729553E0,-9.904752960E0,-1.560654602E0,1.091549525E1
1.536616717E1,-4.512516174E0,-8.900940399E0,-4.697232056E-1,9.990504597E0
1.537610717E1,-4.505331116E0,-8.169860687E0,3.932322693E-1,9.338054601E0
1.538604817E1,-4.196373596E0,-7.813302155E0,9.970765686E-1,8.924763504E0
1.539598817E1,-3.362457733E0,-7.952063599E0,1.211580505E0,8.718334979E0
1.540592917E1,-2.278561707E0,-8.652906189E0,9.797126770E-1,9.001359114E0
1.541586917E1,-1.581910400E0,-9.422006836E0,3.323089600E-1,9.559659124E0
1.542581017E1,-1.095721436E0,-9.956395569E0,-4.164340210E-1,1.002516012E1
1.543575017E1,-5.812413025E-1,-1.024140289E1,-9.765692139E-1,1.030426427E1
1.544569117E1,-2.574645996E-2,-1.024020538E1,-1.282233582E0,1.032020311E1
1.545563117E1,4.715194702E-1,-1.000055374E1,-1.363664246E0,1.010410738E1
1.546557117E1,7.168592834E-1,-9.530381470E0,-1.404080200E0,9.659891273E0
1.547551217E1,7.484436035E-1,-9.063652039E0,-1.559157715E0,9.227184234E0
1.548545217E1,5.800437927E-1,-8.829389191E0,-1.658251648E0,9.002464263E0
1.549539279E1,4.546046448E-1,-8.771160278E0,-1.641486511E0,8.935009568E0
1.550533279E1,2.393522644E-1,-8.737630005E0,-1.550775146E0,8.877407908E0
1.551527379E1,-1.059796143E-1,-8.718769226E0,-1.397643585E0,8.830717756E0
1.552521379E1,-7.755372620E-1,-8.797655182E0,-1.204545135E0,8.913535983E0
1.553515479E1,-1.658551025E0,-9.077423401E0,-1.066681824E0,9.289145128E0
1.554509479E1,-2.388433228E0,-9.350006561E0,-9.840536499E-1,9.700288530E0
1.555503479E1,-2.777623901E0,-9.403146057E0,-8.381071472E-1,9.840567763E0
1.556497579E1,-2.908751221E0,-9.319020996E0,-5.864804077E-1,9.780027876E0
1.557491579E1,-2.946173401E0,-9.253157959E0,-3.920347595E-1,9.718773646E0
1.558485679E1,-2.781964874E0,-9.207652588E0,-3.341052246E-1,9.624542641E0
1.559479679E1,-2.391726379E0,-9.102421417E0,-4.406835938E-1,9.421710713E0
1.560473779E1,-1.828298035E0,-9.070238342E0,-7.162605286E-1,9.280351633E0
1.561467779E1,-1.303489380E0,-9.182205505E0,-1.085392914E0,9.337561795E0
1.562461779E1,-8.813671875E-1,-9.430688782E0,-1.429527283E0,9.579052525E0
1.563455879E1,-4.920268250E-1,-9.753118286E0,-1.582359467E0,9.892889779E0
1.564449879E1,-2.439926147E-2,-1.004471191E1,-1.546883240E0,1.016315308E1
1.565443979E1,3.552113342E-1,-1.018961060E1,-1.272653503E0,1.027492025E1
1.566437979E1,5.706134033E-1,-1.020517822E1,-8.261320496E-1,1.025445056E1
1.567432079E1,6.262976074E-1,-1.019963974E1,-2.866539001E-1,1.022286995E1
1.568426079E1,4.815486145E-1,-1.024334885E1,1.939965820E-1,1.025649645E1
1.569420179E1,1.477427673E-1,-1.032328262E1,5.748046875E-1,1.034032845E1
1.570414179E1,-5.393284607E-1,-1.046009811E1,6.685098267E-1,1.049530529E1
1.571408179E1,-1.536255341E0,-1.060529617E1,3.218307495E-1,1.072081911E1
1.572402279E1,-2.433339844E0,-1.071846085E1,-4.590953064E-1,1.100078698E1
1.573396279E1,-2.980901184E0,-1.074989548E1,-1.373693390E0,1.123979796E1
1.574390379E1,-3.295397186E0,-1.064616119E1,-2.050585785E0,1.133160593E1
1.575384379E1,-3.546724548E0,-1.049766998E1,-2.400408325E0,1.133764924E1
1.576378479E1,-3.819906464E0,-1.041773621E1,-2.592458954E0,1.139481270E1
1.577372479E1,-3.992347870E0,-1.033420990E1,-2.619253235E0,1.138398978E1
1.578366479E1,-3.907474365E0,-1.012868729E1,-2.407144318E0,1.111993731E1
1.579360579E1,-3.402424622E0,-9.970765686E0,-1.911524963E0,1.070731476E1
1.580354579E1,-2.748584290E0,-1.009111542E1,-1.258882141E0,1.053423515E1
1.581348679E1,-2.234253845E0,-1.037776932E1,-6.066883850E-1,1.063287624E1
1.582342679E1,-1.947001190E0,-1.088222031E1,-1.604663086E-1,1.105618749E1
1.583336779E1,-1.963916016E0,-1.160237274E1,9.580078125E-3,1.176741735E1
1.584330779E1,-2.253264313E0,-1.245365250E1,-1.351689148E-1,1.265657660E1
1.585324879E1,-2.724334717E0,-1.315838699E1,-3.914360046E-1,1.344315328E1
1.586318879E1,-3.289559326E0,-1.342977264E1,-5.944139099E-1,1.383955641E1
1.587312879E1,-3.761228485E0,-1.330373474E1,-8.849597168E-1,1.385349600E1
1.588306979E1,-4.100423126E0,-1.288535477E1,-5.785469055E-1,1.353442107E1
1.589300979E1,-4.021836548E0,-1.234003876E1,1.960922241E-1,1.298037665E1
1.590295079E1,-3.674109650E0,-1.181133820E1,1.270857239E0,1.243470425E1
1.591289079E1,-3.014431458E0,-1.137724091E1,2.286345520E0,1.198981999E1
1.592283179E1,-2.636916504E0,-1.122351059E1,3.116369476E0,1.194287559E1
1.593277179E1,-2.296224976E0,-1.126078308E1,3.757486267E0,1.209117810E1
1.594271279E1,-1.992057495E0,-1.128997238E1,4.302502899E0,1.224513375E1
1.595265279E1,-1.648521881E0,-1.113594269E1,4.442461853E0,1.210216143E1
1.596259279E1,-1.372495880E0,-1.081845291E1,3.612138519E0,1.148782891E1
1.597253379E1,-1.368304596E0,-1.044438080E1,2.236798553E0,1.076850108E1
1.598247379E1,-1.079105988E0,-9.817783813E0,4.834945679E-1,9.888736812E0
1.599241479E1,-5.267546082E-1,-9.229058075E0,-1.362317047E0,9.343922683E0
1.600235479E1,-7.207511902E-1,-9.314081268E0,-2.931952972E0,9.791217513E0
1.601229579E1,-8.825646973E-1,-9.779762878E0,-3.790118408E0,1.052557267E1
1.602223579E1,-8.508306885E-1,-1.070439011E1,-3.528761902E0,1.130309873E1
1.603217579E1,-6.340814209E-1,-1.187854843E1,-3.116219788E0,1.229686130E1
1.604211679E1,-2.191442871E-1,-1.307456131E1,-3.173999634E0,1.345609346E1
1.605205679E1,2.017803955E-1,-1.370235580E1,-3.533252563E0,1.415200140E1
1.606199779E1,4.236190796E-1,-1.390248962E1,-3.877835999E0,1.443940037E1
1.607193779E1,6.280938721E-1,-1.358006012E1,-3.965104523E0,1.416102357E1
1.608187879E1,7.634124756E-1,-1.269090912E1,-3.449875946E0,1.317359544E1
1.609181879E1,6.441105652E-1,-1.160282181E1,-2.423460388E0,1.187069975E1
1.610175979E1,2.866539001E-1,-1.048569489E1,-1.306483154E0,1.057066062E1
1.611169979E1,-2.079176331E-1,-9.733958130E0,-6.107299805E-2,9.736369987E0
1.612163979E1,-7.912545776E-1,-9.491312714E0,8.825646973E-1,9.565041625E0
1.613158079E1,-1.329834595E0,-9.409432983E0,1.180594940E0,9.575995694E0
1.614152079E1,-1.669029236E0,-9.380992126E0,9.827064514E-1,9.578850862E0
1.615146179E1,-1.700014801E0,-9.327702942E0,3.363505554E-1,9.487319126E0
1.616140179E1,-1.698068848E0,-9.186845856E0,-8.152047729E-1,9.377959981E0
1.617134279E1,-1.713486786E0,-9.081015930E0,-2.105820923E0,9.478152196E0
1.618128279E1,-1.783990173E0,-9.005123749E0,-2.486329651E0,9.510873241E0
1.619122379E1,-1.900298309E0,-8.849447479E0,-1.667532349E0,9.203505772E0
1.620116379E1,-2.031425629E0,-8.553213501E0,-5.544470215E-1,8.808607312E0
1.621110379E1,-2.031874695E0,-8.111182709E0,-1.471440125E-1,8.363100566E0
1.622104479E1,-1.901346130E0,-7.744145966E0,-2.969824219E-1,7.979668690E0
1.623098479E1,-1.765279083E0,-7.607629852E0,-6.122268677E-1,7.833713292E0
1.624092579E1,-1.368753662E0,-7.471862183E0,-8.737330627E-1,7.646281484E0
1.625086579E1,-6.617738342E-1,-7.319179688E0,-9.991722107E-1,7.416648907E0
1.626080679E1,1.348695374E-1,-7.030430145E0,-9.725276184E-1,7.098658168E0
1.627074679E1,8.866062927E-1,-6.680457916E0,-9.418414307E-1,6.804531870E0
1.628068679E1,1.444945221E0,-6.293811951E0,-8.443940735E-1,6.512521548E0
1.629062779E1,1.887874146E0,-5.907165985E0,-6.722520447E-1,6.237836290E0
1.630056779E1,2.219883728E0,-5.590873718E0,-5.839356995E-1,6.043735070E0
1.631050879E1,2.395318909E0,-5.334307251E0,-5.493576050E-1,5.873174636E0
1.632044879E1,2.429747314E0,-5.221142578E0,-4.113446045E-1,5.773491683E0
1.633038979E1,2.275268555E0,-5.322930908E0,-2.189945984E-1,5.792961167E0
