"Time (s)","Acceleration x (m/s^2)","Acceleration y (m/s^2)","Acceleration z (m/s^2)","Absolute acceleration (m/s^2)"
2.002695855E-2,3.840264130E0,4.550986176E0,1.126213028E1,1.273949301E1
2.996795811E-2,4.124672699E0,4.645739136E0,1.085452789E1,1.250666194E1
3.990995837E-2,4.212989044E0,4.835394745E0,1.066127975E1,1.244159174E1
4.985095840E-2,4.085603943E0,5.079237671E0,1.063583267E1,1.247444394E1
5.979195843E-2,3.862118683E0,5.248685303E0,1.103430405E1,1.281485560E1
6.973395823E-2,2.973416748E0,4.957241364E0,1.150372787E1,1.287443995E1
7.967495825E-2,1.976340179E0,3.977378998E0,1.131646729E1,1.215680451E1
8.961595828E-2,1.901196442E0,2.781515808E0,1.072938812E1,1.124593916E1
9.955795854E-2,2.536475372E0,1.939516754E0,1.003348526E1,1.052930477E1
1.094989581E-1,3.620221710E0,1.562750244E0,9.083111572E0,9.902076014E0
1.194399581E-1,4.903952179E0,1.339564362E0,8.149203644E0,9.604826895E0
1.293819584E-1,5.771847382E0,1.257684631E0,6.904841309E0,9.086959135E0
1.393229584E-1,6.120173035E0,1.583706665E0,5.487588501E0,8.371276625E0
1.492639584E-1,5.496120758E0,1.710043945E0,5.478307800E0,7.946285298E0
1.592059582E-1,5.558391266E0,1.595831451E0,5.535638580E0,8.005353582E0
1.691469583E-1,3.793710938E0,1.581161957E0,4.450395355E0,6.057915040E0
1.790879583E-1,2.423460388E0,1.456920319E0,3.727249146E0,4.678478734E0
1.890299581E-1,2.135159912E0,8.940907288E-1,2.933300171E0,3.736650368E0
1.989709581E-1,2.580034790E0,1.665736084E0,2.136357422E0,3.741026497E0
2.089119582E-1,3.093317413E0,1.890867920E0,1.612596588E0,3.967929166E0
2.188539584E-1,2.148332520E0,5.158273315E-1,1.595232697E0,2.725101431E0
2.287949584E-1,2.357896729E0,6.881190491E-1,1.280287628E0,2.769895525E0
2.387359585E-1,3.747157745E0,9.045689392E-1,3.334765320E0,5.097067380E0
2.486779583E-1,5.919440460E0,3.171903992E-1,6.023773499E0,8.451404160E0
2.586189583E-1,4.484075317E0,-9.958790588E-1,4.616100769E0,6.512072854E0
2.685599583E-1,2.606529694E0,-2.536325684E0,3.850293274E0,5.296385873E0
2.785019581E-1,3.317102051E0,-2.561772766E0,7.190148010E0,8.322504078E0
2.884429581E-1,6.863377533E0,-2.544558563E0,1.428614182E1,1.605224524E1
2.983839582E-1,2.725232849E0,-1.668729858E0,8.779692535E0,9.343155486E0
3.083259584E-1,6.132746887E-1,-1.904040527E0,9.054820404E0,9.273146646E0
3.182669585E-1,1.080752563E0,-2.563868408E0,9.369316406E0,9.773716654E0
3.282079585E-1,6.514453125E-1,-5.358856201E0,1.110166397E1,1.234458034E1
3.381499583E-1,4.790039062E-3,-6.642886047E0,1.377121262E1,1.528967805E1
3.480909583E-1,4.764891357E0,-2.723586273E0,1.393437332E1,1.497627696E1
3.580319583E-1,7.980654144E0,-1.826651459E0,1.331615891E1,1.563162129E1
3.679739581E-1,5.817801819E0,-2.472558289E0,1.281679733E1,1.429092916E1
3.779149582E-1,5.197342072E0,-1.638941803E0,1.200443665E1,1.318351220E1
3.878559582E-1,6.652166748E0,-1.299447784E0,1.388243134E1,1.544868236E1
3.977979585E-1,6.852001190E0,-1.955084381E0,1.720103027E1,1.861847786E1
4.077389585E-1,3.927382965E0,-3.014581146E0,1.981175125E1,2.042100693E1
4.176799585E-1,2.292333069E0,-3.045716400E0,2.179602493E1,2.212685884E1
4.276219583E-1,9.214837646E-1,-2.965483246E0,2.232457581E1,2.253951881E1
4.375629583E-1,4.126319275E0,-2.030826874E0,1.972957214E1,2.025849909E1
4.475039584E-1,6.540948029E0,-1.143322449E0,1.830977463E1,1.947662790E1
4.574459582E-1,1.749112701E0,-2.376158752E0,1.720956253E1,1.746065772E1
4.673869582E-1,1.720372467E0,-1.626667328E0,1.612327148E1,1.629618395E1
4.773279582E-1,1.673220520E0,-4.679269409E-1,1.129236740E1,1.142524328E1
4.872699585E-1,2.504741364E0,-1.598675537E-1,8.104596405E0,8.484324948E0
4.972109585E-1,2.960393829E0,5.658233643E-2,7.359146576E0,7.932475749E0
5.071519585E-1,3.003504181E0,1.948947144E-1,6.848109283E0,7.480349061E0
5.170939583E-1,1.690135345E0,4.544549561E-1,5.979315948E0,6.230193095E0
5.270349584E-1,2.099533997E0,1.101559296E0,6.343658295E0,6.772257854E0
5.369759584E-1,2.761607208E0,9.482780457E-1,5.758225708E0,6.456227144E0
5.469179582E-1,2.832110596E0,4.640350342E-2,2.538271637E0,3.803396721E0
5.568589582E-1,2.810854797E0,-5.956114197E-1,5.917195129E-1,2.933562619E0
5.667999582E-1,1.849254456E0,-3.403921509E-1,1.170565796E-1,1.883961544E0
5.767419585E-1,7.973918152E-1,8.560697937E-1,-1.281335449E-1,1.176905860E0
5.866829585E-1,2.953358459E-1,1.788780212E0,-5.929170227E-1,1.907487485E0
5.966239586E-1,-4.475692749E-2,1.282233582E0,-1.275198212E0,1.808937981E0
6.065659584E-1,-1.420545959E-1,2.947370911E-1,-2.083517303E0,2.109050453E0
6.165069584E-1,1.245410156E-1,-3.399430847E-1,-2.815794525E0,2.838973507E0
6.264479584E-1,1.317709808E0,-3.989204407E-1,-3.176095276E0,3.461658253E0
6.363899582E-1,1.980830841E0,-3.059637451E-1,-2.590662689E0,3.275490468E0
6.463309582E-1,1.746418304E0,-4.785548401E-1,-2.007475433E0,2.703506842E0
6.562729585E-1,6.827302551E-1,-1.627116394E-1,-7.722441101E-1,1.043530855E0
6.662139585E-1,3.418890381E-1,3.010240173E-1,4.803511047E-1,6.619975507E-1
6.761549585E-1,1.118623810E0,-2.664459229E-2,4.822970581E-1,1.218457884E0
6.860959581E-1,2.227368164E0,-2.989283752E-1,2.064207458E-1,2.256797872E0
6.960379584E-1,2.700683899E0,-3.291654968E-1,9.792636108E-1,2.891539498E0
7.059789584E-1,2.183808746E0,-1.619631958E-1,3.596870270E0,4.211024632E0
7.159209582E-1,1.161883850E0,5.284011841E-1,7.703280945E0,7.808310906E0
7.258619582E-1,-3.631448364E-1,1.603016510E0,1.159264297E1,1.170858263E1
7.358029583E-1,-1.096918945E0,2.680026855E0,1.512574585E1,1.540045333E1
7.457449585E-1,-6.225553894E-1,3.163521423E0,1.851320160E1,1.879186197E1
7.556859585E-1,3.480262756E-1,2.833607483E0,2.192849945E1,2.211356013E1
7.656269581E-1,8.360115051E-1,1.636995850E0,2.627695679E1,2.634116794E1
7.755689584E-1,6.512956238E-1,7.185058594E-3,2.952624985E1,2.953343305E1
7.855099584E-1,1.620979156E0,-5.493576050E-1,3.084680374E1,3.089424976E1
7.954509584E-1,2.813698883E0,-3.472778320E-1,3.078722763E1,3.091748516E1
8.053929582E-1,3.153791656E0,-4.140390015E-1,2.987233017E1,3.004120404E1
8.153339582E-1,2.746189270E0,-5.276527405E-1,2.861928589E1,2.875558203E1
8.252749583E-1,1.703158264E0,-6.460565186E-1,2.683200256E1,2.689376319E1
8.352169585E-1,5.078938293E-1,-5.631289673E-1,2.440270432E1,2.441448439E1
8.451579581E-1,-2.755769348E-1,-6.810836792E-2,2.157852722E1,2.158039431E1
8.550989581E-1,-7.587721252E-1,5.689668274E-1,1.858654907E1,1.861072983E1
8.650409584E-1,-9.147477722E-1,1.116228790E0,1.548260376E1,1.554971863E1
8.749819584E-1,-8.403524780E-1,1.409918060E0,1.250275040E1,1.261002889E1
8.849229584E-1,-7.403604126E-1,1.541943512E0,9.736951904E0,9.886048539E0
8.948649582E-1,-7.135661316E-1,1.435365143E0,7.348219299E0,7.521022310E0
9.048062083E-1,-6.316864014E-1,1.044378204E0,5.119354248E0,5.262845377E0
9.147472084E-1,-4.709207153E-1,7.732919312E-1,3.173700256E0,3.300321204E0
9.246892082E-1,7.694000244E-2,5.833369446E-1,1.780846710E0,1.875531061E0
9.346302082E-1,8.015830994E-1,4.191284180E-1,8.481362915E-1,1.239975510E0
9.445712082E-1,1.424437866E0,4.905299377E-1,2.170486450E-2,1.506689734E0
9.545132085E-1,2.092049561E0,4.707710266E-1,-7.923023987E-1,2.286053327E0
9.644542085E-1,2.479144592E0,5.289999390E-1,-1.634002075E0,3.015951198E0
9.743952085E-1,2.456990662E0,6.075865173E-1,-2.232307892E0,3.374783402E0
9.843372083E-1,2.325114899E0,8.680448914E-1,-2.370470581E0,3.432024476E0
9.942782084E-1,2.226919098E0,9.270222473E-1,-1.997595978E0,3.131920913E0
1.004219208E0,2.100282440E0,7.722441101E-1,-1.044527893E0,2.469531497E0
1.014161208E0,2.356848907E0,6.997947693E-1,1.490899658E-1,2.463062587E0
1.024102208E0,2.532433777E0,4.444258118E-1,1.087338867E0,2.791601861E0
1.034043208E0,2.581980743E0,2.085163879E-1,1.981130219E0,3.261131795E0
1.043985208E0,2.224524078E0,3.432362366E-1,2.716550903E0,3.527884253E0
1.053926209E0,1.254690857E0,5.571414185E-1,3.227588196E0,3.507418034E0
1.063867209E0,3.576063538E-1,7.321275330E-1,3.809877319E0,3.896031085E0
1.073809208E0,-4.400848389E-1,7.725434875E-1,4.623285828E0,4.708000632E0
1.083750208E0,-1.231938171E0,6.361770630E-1,6.120173035E0,6.275261818E0
1.093691208E0,-1.676663361E0,4.911286926E-1,8.000712433E0,8.189249468E0
1.103633208E0,-1.945653992E0,3.061134338E-1,9.527238007E0,9.728696671E0
1.113574208E0,-2.293680267E0,6.406677246E-2,1.066846481E1,1.091243397E1
1.123515208E0,-2.946772156E0,1.335223389E-1,1.185474792E1,1.221623275E1
1.133457209E0,-3.810176697E0,6.174659729E-1,1.332633774E1,1.387407612E1
1.143398209E0,-4.380341034E0,9.419911194E-1,1.531195862E1,1.595402180E1
1.153339208E0,-4.887486420E0,8.023315430E-1,1.745041168E1,1.813968377E1
1.163281208E0,-4.653822327E0,6.993457031E-1,1.878728165E1,1.936773343E1
1.173222208E0,-3.858825531E0,4.950205994E-1,1.897334473E1,1.936810238E1
1.183163208E0,-3.243155823E0,2.543211365E-1,1.917482574E1,1.944882210E1
1.193105208E0,-2.815495148E0,1.020877075E-1,1.985082001E1,2.004975037E1
1.203046208E0,-2.563868408E0,-3.143463135E-3,2.052187454E1,2.068141112E1
1.212987208E0,-2.428849182E0,3.367996216E-2,2.048011139E1,2.062366129E1
1.222929209E0,-2.604134674E0,1.860630798E-1,1.956027420E1,1.973373922E1
1.232870208E0,-2.803669739E0,3.974235535E-1,1.810754517E1,1.832762127E1
1.242811208E0,-2.917133789E0,7.029382324E-1,1.640842850E1,1.668053709E1
1.252753208E0,-3.000809784E0,1.093176727E0,1.473011856E1,1.507236835E1
1.262694208E0,-3.230581970E0,1.553020477E0,1.319012100E1,1.366849752E1
1.272635208E0,-3.599414978E0,2.033371582E0,1.184666473E1,1.254726478E1
1.282577208E0,-3.681145020E0,2.468067627E0,1.066262695E1,1.154702559E1
1.292518208E0,-3.272494812E0,2.647843781E0,9.657766571E0,1.053530987E1
1.302459208E0,-2.917732544E0,2.590662689E0,8.959169312E0,9.771970688E0
1.312401208E0,-2.517464905E0,2.412682800E0,8.475225677E0,9.164503158E0
1.322342208E0,-2.015858002E0,2.164349213E0,8.285121002E0,8.797233714E0
1.332283208E0,-1.462458801E0,1.870659943E0,8.235723724E0,8.571190094E0
1.342225208E0,-9.958790588E-1,1.461261292E0,8.223898315E0,8.411870373E0
1.352166208E0,-6.191125488E-1,1.060245209E0,8.247848511E0,8.338730437E0
1.362107208E0,-2.239343262E-1,7.716453552E-1,8.042625275E0,8.082660728E0
1.372049208E0,-1.926493835E-1,5.441184998E-1,7.663613434E0,7.685320396E0
1.381990208E0,4.236190796E-2,4.117936707E-1,7.257957001E0,7.269752979E0
1.391932209E0,2.770738220E-1,3.068618774E-1,6.625222778E0,6.638110498E0
1.401873208E0,4.108955383E-1,2.799179077E-1,5.793103180E0,5.814398819E0
1.411814208E0,5.718109131E-1,3.550616455E-1,4.997807007E0,5.042926865E0
1.421756208E0,6.394702148E-1,4.587959290E-1,4.247866516E0,4.320160390E0
1.431697208E0,6.171665955E-1,6.616241455E-1,3.413800964E0,3.531667898E0
1.441638208E0,5.825885010E-1,8.915460205E-1,2.624342651E0,2.832214332E0
1.451580208E0,5.542973328E-1,9.463320923E-1,2.108215942E0,2.376418402E0
1.461521208E0,5.327421570E-1,9.577084351E-1,1.835483093E0,2.137760005E0
1.471462208E0,5.779481506E-1,9.892927551E-1,1.841021576E0,2.168429077E0
1.481404208E0,4.893324280E-1,9.062155151E-1,2.038760376E0,2.284122732E0
1.491345208E0,1.621128845E-1,7.773335266E-1,2.308649139E0,2.441390761E0
1.501286208E0,-9.954299927E-2,7.098239136E-1,2.630180511E0,2.726097636E0
1.511228208E0,6.047424316E-2,6.307882690E-1,2.843187561E0,2.912948074E0
1.521169208E0,3.490740967E-1,5.650749207E-1,2.758463745E0,2.837302350E0
1.531110208E0,7.038363647E-1,3.370989990E-1,3.286116486E0,3.377511350E0
1.541052208E0,1.325792999E0,1.598675537E-1,4.849315796E0,5.029825882E0
1.550993208E0,1.671573944E0,1.496887207E-3,7.529192963E0,7.712516344E0
1.560934208E0,1.493144989E0,-1.411564636E-1,1.077264816E1,1.087655072E1
1.570876208E0,7.792794800E-1,1.594184875E-1,1.318667816E1,1.321064615E1
1.580817208E0,-1.950444031E-1,8.452922058E-1,1.434721481E1,1.437341762E1
1.590758208E0,-1.530417480E0,1.385668488E0,1.513143402E1,1.527162566E1
1.600700208E0,-2.988086243E0,1.777254181E0,1.610381195E1,1.647483084E1
1.610641208E0,-4.000131683E0,1.749262390E0,1.734054016E1,1.788170309E1
1.620582209E0,-4.379143524E0,1.410067749E0,1.938349182E1,1.992197139E1
1.630524208E0,-4.093088379E0,1.030457153E0,2.164379150E1,2.205150619E1
1.640465208E0,-3.488944702E0,7.463479614E-1,2.278142578E1,2.305912251E1
1.650406208E0,-2.977907410E0,6.132746887E-1,2.271496399E1,2.291753973E1
1.660348208E0,-2.634970551E0,7.937992859E-1,2.188928101E1,2.206159129E1
1.670289208E0,-2.552641754E0,1.211730194E0,2.058279785E1,2.077584745E1
1.680230208E0,-2.885399780E0,1.567240906E0,1.928439789E1,1.956194719E1
1.690172208E0,-3.414100342E0,1.972148895E0,1.799423080E1,1.842112360E1
1.700113208E0,-3.829935608E0,2.302511902E0,1.656575134E1,1.715791611E1
1.710054209E0,-4.021986237E0,2.511926422E0,1.501243149E1,1.574354620E1
1.719996208E0,-3.872147827E0,2.550695801E0,1.344578934E1,1.422282773E1
1.729937208E0,-3.491639099E0,2.371219025E0,1.210338089E1,1.281819224E1
1.739878208E0,-3.085383911E0,2.103126526E0,1.106693619E1,1.167988920E1
1.749820208E0,-2.728825378E0,1.688189392E0,1.036699173E1,1.085223428E1
1.759761208E0,-2.271676025E0,1.183289337E0,9.808353424E0,1.013728181E1
1.769702208E0,-1.912423096E0,7.677534485E-1,8.945847015E0,9.180140864E0
1.779644208E0,-1.832040253E0,4.558021545E-1,7.797135773E0,8.022434378E0
1.789585209E0,-1.694775696E0,2.297721863E-1,6.704258423E0,6.918969643E0
1.799526209E0,-1.578916626E0,-3.008743286E-2,5.707032166E0,5.921494668E0
1.809468208E0,-1.565145264E0,-2.086660767E-1,4.694837036E0,4.953253075E0
1.819409208E0,-1.394649811E0,-3.824546814E-1,3.670966187E0,3.945543362E0
1.829350208E0,-1.196911011E0,-5.391787720E-1,2.712958374E0,3.013876715E0
1.839292208E0,-9.611512756E-1,-5.899232483E-1,1.904938660E0,2.213732710E0
1.849233208E0,-7.458988953E-1,-5.372328186E-1,1.089434509E0,1.425430396E0
1.859174208E0,-6.402186584E-1,-3.201841736E-1,1.892065430E-1,7.404032358E-1
1.869116209E0,-4.993615723E-1,7.604187012E-2,-5.999523926E-1,7.842749640E-1
1.879057209E0,-3.118016052E-1,4.087998962E-1,-1.095871124E0,1.210483836E0
1.888998208E0,-2.192939758E-1,5.936654663E-1,-1.142424316E0,1.306009898E0
1.898940208E0,-1.808239746E-1,6.954537964E-1,-6.942562866E-1,9.991721995E-1
1.908880750E0,-2.164498901E-1,7.418572998E-1,-5.643264771E-2,7.748467280E-1
1.918822750E0,-5.013075256E-1,9.156459045E-1,4.695735168E-1,1.144646647E0
1.928763750E0,-1.012195129E0,1.095871124E0,9.779164124E-1,1.783758114E0
1.938704750E0,-1.565444641E0,1.321601715E0,1.658850403E0,2.636101796E0
1.948646750E0,-2.389181671E0,1.448238373E0,2.838397522E0,3.982723181E0
1.958587750E0,-3.009342041E0,1.463506622E0,4.935835876E0,5.963259759E0
1.968528750E0,-3.194956055E0,1.510658569E0,7.541168060E0,8.328208044E0
1.978470750E0,-3.192860413E0,1.235081635E0,1.040246796E1,1.095130695E1
1.988411750E0,-2.717449036E0,1.001716919E0,1.306782532E1,1.338491780E1
1.998352750E0,-2.236199799E0,9.949809265E-1,1.486738312E1,1.506750335E1
2.008294750E0,-2.167342987E0,1.046623535E0,1.598331253E1,1.616351063E1
2.018235750E0,-2.361788635E0,1.274000702E0,1.686467972E1,1.707684237E1
2.028176750E0,-2.698887634E0,1.538949738E0,1.740924728E1,1.768429393E1
2.038118750E0,-3.233126678E0,1.848955078E0,1.810679672E1,1.848588193E1
2.048059750E0,-3.724405060E0,2.400408325E0,1.895523239E1,1.946622686E1
2.058000750E0,-4.069138184E0,2.965632935E0,1.911300430E1,1.976511568E1
2.067942750E0,-3.986959076E0,3.317551117E0,1.872231674E1,1.942748394E1
2.077883750E0,-3.840713196E0,3.503314819E0,1.858804596E1,1.930128869E1
2.087824750E0,-4.029171295E0,3.628454590E0,1.889460846E1,1.965721580E1
2.097766750E0,-4.315675507E0,3.687581635E0,1.928843948E1,2.010639727E1
2.107707750E0,-4.423301697E0,3.698059845E0,1.941313019E1,2.025119424E1
2.117648750E0,-4.565206604E0,3.759432220E0,1.921149948E1,2.010114808E1
2.127590750E0,-4.665797424E0,3.888763275E0,1.859957199E1,1.956620105E1
2.137531750E0,-4.703818359E0,4.040098572E0,1.754261993E1,1.860623062E1
2.147472750E0,-4.663701782E0,4.111500092E0,1.627730118E1,1.742426701E1
2.157414750E0,-4.446204071E0,4.074526978E0,1.492097168E1,1.609366014E1
2.167355750E0,-4.047583008E0,3.758983154E0,1.341660004E1,1.450923978E1
2.177296750E0,-3.480562134E0,3.349434814E0,1.178080170E1,1.273264760E1
2.187238750E0,-2.788850555E0,3.129542084E0,1.012704071E1,1.096032274E1
2.197179750E0,-2.066452789E0,3.034340057E0,8.464747467E0,9.226559293E0
2.207120750E0,-1.255439301E0,2.781964874E0,6.975494385E0,7.613998838E0
2.217062750E0,-2.312690735E-1,2.350112915E0,5.751340027E0,6.217268548E0
2.227003750E0,8.520281982E-1,1.857637024E0,4.718338165E0,5.141933722E0
2.236944750E0,1.567390594E0,1.375489655E0,4.006418610E0,4.516644234E0
2.246886750E0,2.063758392E0,1.172212372E0,3.490291901E0,4.220819600E0
2.256827750E0,2.619103546E0,1.110690308E0,2.897973633E0,4.060983566E0
2.266768750E0,2.991678772E0,8.113128662E-1,2.326312408E0,3.875577359E0
2.276710750E0,3.492836609E0,2.285746765E-1,2.205513611E0,4.137202466E0
2.286651750E0,4.301455078E0,-3.278182983E-1,2.348316650E0,4.911677078E0
2.296592750E0,4.952750702E0,-7.259902954E-1,2.143991547E0,5.445502840E0
2.306534750E0,4.933141479E0,-8.026309204E-1,1.874701538E0,5.338034012E0
2.316475750E0,4.377197571E0,-3.110531616E-1,1.439257050E0,4.618232725E0
2.326416750E0,3.573818207E0,3.776646423E-1,9.485774231E-1,3.716800544E0
2.336358750E0,2.519560547E0,8.285270691E-1,9.854008484E-1,2.829427024E0
2.346299750E0,1.486558685E0,9.463320923E-1,1.425934753E0,2.266868120E0
2.356240750E0,5.890251160E-1,8.807684326E-1,1.915566559E0,2.189086307E0
2.366182750E0,-2.415975952E-1,7.039860535E-1,2.170486450E0,2.294553811E0
2.376123750E0,-8.484356689E-1,5.894741821E-1,2.674488373E0,2.867091026E0
2.386064750E0,-1.178349609E0,4.534071350E-1,3.117417297E0,3.363387643E0
2.396006750E0,-1.369202728E0,3.261717224E-1,3.982468414E0,4.223879588E0
2.405947750E0,-1.527573395E0,5.379812622E-1,5.261259155E0,5.504884396E0
2.415888750E0,-1.561403046E0,1.062191162E0,6.852300568E0,7.107760027E0
2.425830750E0,-1.381626892E0,1.312919769E0,8.780291290E0,8.984774139E0
2.435771750E0,-1.168769531E0,1.385219421E0,1.059870987E1,1.075255811E1
2.445713750E0,-1.219963074E0,1.530267792E0,1.222971817E1,1.238531533E1
2.455654750E0,-1.502276001E0,1.622925110E0,1.358395203E1,1.376279302E1
2.465595750E0,-1.814227295E0,1.702559509E0,1.452025497E1,1.473186798E1
2.475537750E0,-2.134710846E0,1.912722473E0,1.549727325E1,1.576010711E1
2.485478750E0,-2.610870667E0,2.354154510E0,1.641336823E1,1.678562914E1
2.495419750E0,-3.055446167E0,2.842439117E0,1.729024475E1,1.778673031E1
2.505361750E0,-3.237018585E0,3.485202484E0,1.785427185E1,1.847701137E1
2.515302750E0,-3.307521973E0,3.957021332E0,1.824510910E1,1.896000331E1
2.525243750E0,-3.307971039E0,4.057163086E0,1.860091919E1,1.932349449E1
2.535185750E0,-3.152444458E0,4.101171570E0,1.876662460E1,1.946647665E1
2.545126750E0,-2.960693207E0,4.191134491E0,1.863684448E1,1.933037208E1
2.555067750E0,-2.762655029E0,4.299808502E0,1.827669342E1,1.897783281E1
2.565009750E0,-2.457290039E0,4.444108429E0,1.762779282E1,1.834468462E1
2.574950750E0,-2.178569641E0,4.535717926E0,1.664957703E1,1.739331245E1
2.584891750E0,-1.980980530E0,4.497996368E0,1.552691162E1,1.628622853E1
2.594833750E0,-1.850901031E0,4.487069092E0,1.423330170E1,1.503816813E1
2.604774750E0,-1.754202118E0,4.517156525E0,1.277383667E1,1.366209469E1
2.614715750E0,-1.542691956E0,4.359384613E0,1.143726608E1,1.233674139E1
2.624657750E0,-1.251397705E0,3.966451721E0,1.046473846E1,1.126097183E1
2.634598750E0,-7.936495972E-1,3.414699097E0,9.695039063E0,1.030940503E1
2.644539750E0,-3.944297791E-1,2.778671722E0,9.002279663E0,9.429614548E0
2.654481750E0,-1.017883301E-1,2.189945984E0,8.297694855E0,8.582421813E0
2.664422750E0,2.561174011E-1,1.576072540E0,7.502698059E0,7.670728710E0
2.674363750E0,5.105882263E-1,7.756869507E-1,6.911577301E0,6.973685637E0
2.684305750E0,6.753955078E-1,-1.811233521E-2,6.874005432E0,6.907129493E0
2.694246750E0,6.804849243E-1,-4.593946838E-1,6.624324646E0,6.675011627E0
2.704187750E0,4.198768616E-1,-5.981561279E-1,5.863756256E0,5.909122165E0
2.714129750E0,1.700463867E-1,-5.399272156E-1,4.789739685E0,4.823074064E0
2.724070750E0,2.739303589E-2,-3.200344849E-1,3.676354980E0,3.690360198E0
2.734011750E0,-1.107696533E-2,-1.113684082E-1,2.637215881E0,2.639589594E0
2.743953750E0,-2.933898926E-2,-2.933898926E-2,1.882934418E0,1.883391508E0
2.753894750E0,-5.538482666E-3,1.209484863E-1,1.429227905E0,1.434347105E0
2.763835750E0,3.562591553E-2,2.604583740E-1,1.164877625E0,1.194172371E0
2.773777750E0,4.445755005E-2,3.055146790E-1,1.057999878E0,1.102124963E0
2.783718750E0,1.047821045E-2,3.969744873E-1,1.169817352E0,1.235383007E0
2.793659750E0,-9.565109253E-2,5.578898621E-1,1.436712341E0,1.544193181E0
2.803601750E0,-1.875599670E-1,8.863069153E-1,1.741927643E0,1.963423185E0
2.813542750E0,-3.005749512E-1,1.264570312E0,1.964215393E0,2.355339782E0
2.823483750E0,-6.271957397E-1,1.662891998E0,2.327659607E0,2.928580465E0
2.833425750E0,-1.085392914E0,1.991608429E0,3.144960022E0,3.877545029E0
2.843366750E0,-1.603315887E0,2.220781860E0,4.691244507E0,5.432335495E0
2.853307750E0,-2.155218201E0,2.390528870E0,7.292385406E0,7.971102727E0
2.863249750E0,-2.587369537E0,2.410138092E0,1.095751373E1,1.151392001E1
2.873190750E0,-3.184028778E0,2.080972595E0,1.516286865E1,1.563269241E1
2.883132750E0,-3.609444122E0,1.494192810E0,1.906225983E1,1.945842873E1
2.893073750E0,-3.794459381E0,1.257684631E0,2.102497833E1,2.140162159E1
2.903014750E0,-3.643722839E0,1.653910675E0,2.128498764E1,2.165785852E1
2.912956583E0,-3.183729401E0,2.430046692E0,2.078832047E1,2.117062889E1
2.922897583E0,-2.689307556E0,3.260669403E0,2.024734543E1,2.068379407E1
2.932838583E0,-2.484683075E0,3.833677826E0,1.981384689E1,2.033369775E1
2.942780583E0,-2.624342651E0,4.174519043E0,1.950938004E1,2.012286493E1
2.952721583E0,-3.152893524E0,4.239783325E0,1.934771622E1,2.005618665E1
2.962662583E0,-3.765868835E0,4.073628845E0,1.907453430E1,1.986489564E1
2.972604583E0,-4.282145233E0,3.917802887E0,1.877680344E1,1.965335326E1
2.982545584E0,-4.721481628E0,3.788022766E0,1.826007797E1,1.923725429E1
2.992486584E0,-4.883444824E0,3.694766693E0,1.723950027E1,1.829479992E1
3.002428583E0,-4.531227264E0,3.733985138E0,1.565489548E1,1.671976130E1
3.012369583E0,-3.890260162E0,3.764821014E0,1.378707962E1,1.481187246E1
3.022310583E0,-3.242706757E0,3.711082764E0,1.200264038E1,1.297500129E1
3.032252583E0,-2.602937164E0,3.493734741E0,1.054691757E1,1.141135113E1
3.042193583E0,-2.009421387E0,2.940934296E0,9.539961548E0,1.018320849E1
3.052134583E0,-1.390009460E0,2.206112366E0,8.653055878E0,9.037390890E0
3.062076584E0,-1.012195129E0,1.528022461E0,7.577692108E0,7.796204802E0
3.072017584E0,-1.022673340E0,1.103056183E0,6.256090393E0,6.434381144E0
3.081958584E0,-1.161883850E0,8.638536072E-1,4.710704041E0,4.928179146E0
3.091900583E0,-1.251846771E0,7.026388550E-1,3.147205353E0,3.459150652E0
3.101841583E0,-1.344953156E0,6.346801758E-1,1.785487061E0,2.323721575E0
3.111782583E0,-1.359023895E0,6.087840271E-1,6.719526672E-1,1.633733248E0
3.121724583E0,-1.121767273E0,4.966671753E-1,-2.781216431E-1,1.257931535E0
3.131665583E0,-9.083111572E-1,2.773731995E-1,-7.899073792E-1,1.235280825E0
3.141606583E0,-4.640350342E-1,-5.164260864E-2,-8.469387817E-1,9.671094933E-1
3.151548584E0,1.329235840E-1,-4.691244507E-1,-7.009922791E-1,8.538949612E-1
3.161489584E0,5.989045715E-1,-7.289840698E-1,-8.174501038E-1,1.248330538E0
3.171430583E0,9.395960999E-1,-8.616082764E-1,-9.569599915E-1,1.594045821E0
3.181372583E0,1.171613617E0,-7.548802185E-1,-1.114582214E0,1.784605313E0
3.191313583E0,1.337319031E0,-1.764830017E-1,-1.575024719E0,2.073709552E0
3.201254583E0,1.497935028E0,5.004093933E-1,-1.989961853E0,2.540505282E0
3.211196583E0,1.653461609E0,1.030008087E0,-1.781445465E0,2.639772698E0
3.221137583E0,2.181563416E0,1.386865997E0,-1.035845947E0,2.784886543E0
3.231078583E0,2.902164917E0,1.781894531E0,-9.355545044E-2,3.406825788E0
3.241020584E0,3.228636017E0,2.282004547E0,1.643282776E0,4.281590074E0
3.250961583E0,2.860102386E0,2.904709625E0,4.327500916E0,5.945148261E0
3.260902583E0,2.131118317E0,3.503464508E0,8.478967896E0,9.418536267E0
3.270844583E0,1.818119202E0,3.761976929E0,1.347527802E1,1.410819427E1
3.280785583E0,1.710642700E0,3.186124420E0,1.801384003E1,1.837324467E1
3.290726583E0,1.938169556E0,2.408790894E0,2.179213303E1,2.201035749E1
3.300668583E0,2.082619171E0,1.906585236E0,2.397130142E1,2.413701849E1
3.310609583E0,2.053280182E0,1.731150055E0,2.491493912E1,2.505927037E1
3.320550583E0,1.920506287E0,2.033072205E0,2.545786011E1,2.561102045E1
3.330492583E0,1.776206360E0,2.384241943E0,2.555186462E1,2.572425518E1
3.340433583E0,1.892813873E0,2.619253235E0,2.481210297E1,2.502166432E1
3.350375583E0,1.960473175E0,2.990630951E0,2.328363144E1,2.355663010E1
3.360316583E0,1.663191376E0,3.576213226E0,2.150547913E1,2.186415192E1
3.370257583E0,1.001716919E0,3.970792694E0,1.985306534E1,2.027103438E1
3.380199583E0,2.799179077E-1,4.018543396E0,1.849598740E1,1.892956932E1
3.390140583E0,-3.471281433E-1,3.910318451E0,1.710268478E1,1.754744754E1
3.400081583E0,-9.330097961E-1,3.848497009E0,1.553963516E1,1.603626195E1
3.410023583E0,-1.465751953E0,3.738176422E0,1.402149216E1,1.458508259E1
3.419964583E0,-1.766925659E0,3.495830383E0,1.283191589E1,1.341644222E1
3.429905583E0,-1.746567993E0,3.119063873E0,1.190698929E1,1.243203335E1
3.439847583E0,-1.564097443E0,2.684816895E0,1.096933914E1,1.140092294E1
3.449788583E0,-1.201251984E0,2.047442322E0,1.007914032E1,1.035490686E1
3.459729583E0,-7.595205688E-1,1.266815643E0,9.459429016E0,9.574052991E0
3.469671583E0,-3.165916443E-1,5.373825073E-1,8.715775452E0,8.738063398E0
3.479612583E0,-1.202000427E-1,-2.845582581E-1,8.231532440E0,8.237326494E0
3.489553583E0,3.966751099E-2,-9.656419373E-1,7.902067566E0,7.960949044E0
3.499495583E0,4.550537109E-2,-1.278191986E0,6.923253021E0,7.040403248E0
3.509436583E0,-1.426533508E-1,-1.287772064E0,5.556744690E0,5.705796913E0
3.519377583E0,-3.324586487E-1,-1.003064117E0,4.101171570E0,4.235123920E0
3.529319583E0,-4.569996643E-1,-6.770420837E-1,2.545007629E0,2.672882061E0
3.539260583E0,-5.200186157E-1,-2.791694641E-1,1.095272369E0,1.244177043E0
3.549201583E0,-6.123765564E-1,1.993853760E-1,-9.086105347E-2,6.503962685E-1
3.559143583E0,-5.098397827E-1,6.512956238E-1,-9.978250122E-1,1.296062247E0
3.569084583E0,-1.627116394E-1,8.872050476E-1,-1.506467285E0,1.755862055E0
3.579025583E0,1.317260742E-1,9.467811584E-1,-1.562899933E0,1.832048722E0
3.588967583E0,2.924917603E-1,9.559121704E-1,-1.193917236E0,1.557163407E0
3.598908583E0,3.379971313E-1,7.785310364E-1,-4.195774841E-1,9.467829216E-1
3.608849583E0,3.112028503E-1,5.481600952E-1,6.976991272E-1,9.402716502E-1
3.618791583E0,2.155517578E-1,4.779560852E-1,1.738035736E0,1.815398799E0
3.628732583E0,-8.517288208E-2,5.760021973E-1,2.379302216E0,2.449512601E0
3.638673584E0,-2.902464294E-1,1.015188904E0,2.622546387E0,2.827118860E0
3.648615583E0,-6.812333679E-1,1.680255890E0,2.496358795E0,3.085311328E0
3.658556583E0,-1.152453461E0,2.319576416E0,2.536625061E0,3.625334527E0
3.668497583E0,-1.640289001E0,2.813100128E0,3.413800964E0,4.717850926E0
3.678439583E0,-1.904489594E0,2.621049500E0,5.692362671E0,6.549807163E0
3.688380583E0,-1.782193909E0,1.915416870E0,9.247769165E0,9.610737300E0
3.698321583E0,-1.771865387E0,1.242266693E0,1.337603439E1,1.354994574E1
3.708263583E0,-1.828148346E0,1.256487122E0,1.663550629E1,1.678275769E1
3.718204584E0,-2.188149719E0,1.741328888E0,1.818283859E1,1.839662591E1
3.728145584E0,-2.655028839E0,2.361788635E0,1.829929642E1,1.864112317E1
3.738087583E0,-2.775228882E0,3.083138580E0,1.772613831E1,1.820504375E1
3.748028583E0,-2.455643463E0,3.859873352E0,1.727662308E1,1.787205954E1
3.757969583E0,-2.043251038E0,4.460424500E0,1.729713043E1,1.797946002E1
3.767911583E0,-1.788181458E0,4.828059998E0,1.771236694E1,1.844547909E1
3.777852583E0,-1.753753052E0,4.957690430E0,1.806338699E1,1.881330098E1
3.787794583E0,-1.921254730E0,4.725523224E0,1.823343338E1,1.893356497E1
3.797735584E0,-2.273172913E0,4.266278229E0,1.822579926E1,1.885598588E1
3.807676584E0,-2.805765381E0,3.842359772E0,1.840916794E1,1.901403461E1
3.817618583E0,-3.371738434E0,3.388054504E0,1.886766449E1,1.946371744E1
3.827559583E0,-3.772754517E0,2.799478455E0,1.955533447E1,2.011173445E1
3.837500583E0,-3.843706970E0,2.290536804E0,1.963736389E1,2.014067285E1
3.847442583E0,-3.588487701E0,2.073039093E0,1.835333405E1,1.881540873E1
3.857383583E0,-3.241808624E0,2.176773376E0,1.586625595E1,1.633969839E1
3.867324583E0,-3.006647644E0,2.436034241E0,1.299103500E1,1.355511650E1
3.877266583E0,-2.811303864E0,2.550546112E0,1.055080948E1,1.121286295E1
3.887207584E0,-2.596350861E0,2.486629028E0,8.910221100E0,9.608142472E0
3.897148584E0,-2.124532013E0,2.159858551E0,7.858059082E0,8.421859520E0
3.907090583E0,-1.359173584E0,1.679058380E0,7.128326569E0,7.448464912E0
3.917031583E0,-9.163943481E-1,1.237027588E0,6.320905609E0,6.505679332E0
3.926972583E0,-9.020242310E-1,9.407936096E-1,5.179229736E0,5.340707911E0
3.936914583E0,-8.770262146E-1,8.396040344E-1,3.779640198E0,3.969860192E0
3.946855583E0,-6.583309937E-1,7.819738770E-1,2.330354004E0,2.544687137E0
3.956796583E0,-2.474354553E-1,7.098239136E-1,9.598040771E-1,1.219138286E0
3.966738584E0,-1.811233521E-2,5.813909912E-1,-6.361770630E-2,5.851416529E-1
3.976679584E0,4.110452271E-1,5.664221191E-1,-5.011578369E-1,8.607853235E-1
3.986620583E0,8.940907288E-1,4.754113770E-1,-6.791377258E-1,1.219279402E0
3.996562583E0,1.187330933E0,3.583547974E-1,-6.481521606E-1,1.399383481E0
4.006503583E0,1.408720551E0,2.965333557E-1,-4.468208313E-1,1.507340199E0
4.016444583E0,1.517394562E0,2.377056885E-1,-2.326162720E-1,1.553415778E0
4.026386583E0,1.466350708E0,2.787203979E-1,-2.953358459E-1,1.521542875E0
4.036327583E0,1.190175018E0,4.447251892E-1,-3.908372498E-1,1.329304639E0
4.046268583E0,8.725355530E-1,7.649093628E-1,-2.838098145E-1,1.194551228E0
4.056210584E0,5.287005615E-1,1.085542603E0,2.662962341E-1,1.236462984E0
4.066151583E0,3.359014893E-1,1.472338257E0,1.351240082E0,2.026440108E0
4.076092583E0,3.182382202E-1,1.956431580E0,2.252964935E0,3.000791744E0
4.086034583E0,5.792953491E-2,2.513722687E0,3.665727081E0,4.445189829E0
4.095975583E0,-6.923103333E-1,3.113824768E0,6.085594940E0,6.870928908E0
4.105916583E0,-1.660796356E0,3.213068390E0,1.006267456E1,1.069296368E1
4.115858583E0,-2.243235168E0,2.831362152E0,1.527064453E1,1.569207762E1
4.125799583E0,-2.352957001E0,2.318528595E0,1.978136444E1,2.005528261E1
4.135740583E0,-2.377356262E0,1.859283600E0,2.239418106E1,2.259663921E1
4.145682583E0,-2.559976501E0,1.496887207E0,2.338811417E1,2.357536925E1
4.155623583E0,-2.554887085E0,1.532363434E0,2.342359039E1,2.361228859E1
4.165564583E0,-2.415526886E0,1.916764069E0,2.325069992E1,2.345429175E1
4.175506583E0,-2.208806763E0,2.226470032E0,2.304248291E1,2.325493528E1
4.185447583E0,-1.856140137E0,2.475851440E0,2.233939499E1,2.255268643E1
4.195389583E0,-1.479223938E0,2.637215881E0,2.120385635E1,2.141836911E1
4.205330583E0,-1.247805176E0,2.761158142E0,1.991309052E1,2.014229843E1
4.215271583E0,-1.250349884E0,2.887794800E0,1.871318573E1,1.897593354E1
4.225213583E0,-1.347048798E0,2.976709900E0,1.755100250E1,1.785253571E1
4.235154583E0,-1.488504639E0,2.913840637E0,1.637160507E1,1.669537559E1
4.245095583E0,-1.582958221E0,2.803520050E0,1.524699371E1,1.558320566E1
4.255037583E0,-1.630409546E0,2.774031372E0,1.408720551E1,1.445001191E1
4.264978583E0,-1.669777679E0,2.646197205E0,1.291484344E1,1.328847991E1
4.274919583E0,-1.676513672E0,2.390828247E0,1.174607391E1,1.210359493E1
4.284861583E0,-1.597627716E0,2.032623138E0,1.057236465E1,1.088388100E1
4.294802583E0,-1.468596039E0,1.622625732E0,9.406888275E0,9.658117602E0
4.304743583E0,-1.396146698E0,1.164428558E0,8.361761627E0,8.557112654E0
4.314685583E0,-1.283880157E0,7.081773376E-1,7.498506775E0,7.640514855E0
4.324626583E0,-1.074465637E0,2.516267395E-1,6.798861694E0,6.887838032E0
4.334567583E0,-8.376580811E-1,-2.005828857E-1,6.180048523E0,6.239783995E0
4.344509583E0,-6.053411865E-1,-5.647755432E-1,5.814808044E0,5.873448898E0
4.354450583E0,-3.761677551E-1,-7.845185852E-1,5.506149902E0,5.574464848E0
4.364391583E0,-2.516267395E-1,-7.042854309E-1,4.712200928E0,4.771181360E0
4.374333583E0,-1.890568542E-1,-4.092489624E-1,3.413501587E0,3.443141050E0
4.384274583E0,-1.237925720E-1,-8.951385498E-2,2.065704346E0,2.071345402E0
4.394215583E0,-1.122665405E-2,3.043171692E-1,8.761280823E-1,9.275426641E-1
4.404157583E0,1.489402771E-1,7.051835632E-1,3.263214111E-2,7.214789814E-1
4.414098583E0,3.718267822E-1,1.037941589E0,-3.359014893E-1,1.152565707E0
4.424039583E0,5.665718079E-1,1.189725952E0,-1.478924561E-1,1.326017961E0
4.433981583E0,7.550299072E-1,1.253193970E0,4.942721558E-1,1.544302513E0
4.443922583E0,5.068460083E-1,1.160536652E0,1.380429382E0,1.873318840E0
4.453863584E0,8.187973022E-2,1.040935364E0,2.404449921E0,2.621379435E0
4.463805583E0,-1.296304321E-1,1.141975250E0,3.038681030E0,3.248768063E0
4.473746583E0,-4.495152283E-1,1.435514832E0,3.110980682E0,3.455570514E0
4.483687583E0,-8.783734131E-1,1.865420837E0,2.900518341E0,3.558699397E0
4.493629583E0,-1.490450592E0,2.325863342E0,2.966381378E0,4.053455530E0
4.503570583E0,-1.920655975E0,2.774630127E0,3.574866028E0,4.916010459E0
4.513511583E0,-2.111359406E0,2.890938263E0,4.956043854E0,6.113733169E0
4.523453583E0,-2.162253571E0,2.640808411E0,7.545359344E0,8.281404301E0
4.533394584E0,-2.287543030E0,2.440375214E0,1.071726334E1,1.122711084E1
4.543335584E0,-2.521805878E0,2.147883453E0,1.438254135E1,1.475907870E1
4.553277583E0,-2.811603241E0,2.026485901E0,1.769754776E1,1.803371716E1
4.563218583E0,-3.155887299E0,2.401755524E0,1.942360840E1,1.982434406E1
4.573159583E0,-3.698808289E0,2.883453827E0,1.983076172E1,2.037779672E1
4.583101583E0,-4.002377014E0,3.451522522E0,1.967298981E1,2.037053159E1
4.593042583E0,-4.179907837E0,4.094585266E0,1.953482712E1,2.039232033E1
4.602984583E0,-4.348756714E0,4.439168701E0,1.964888992E1,2.060817262E1
4.612925583E0,-4.438869324E0,4.444258118E0,1.977417938E1,2.074784715E1
4.622866584E0,-4.301904144E0,4.261338501E0,1.966475693E1,2.057590946E1
4.632808583E0,-4.015998688E0,4.005670166E0,1.931029404E1,2.012612965E1
4.642749583E0,-3.745660858E0,3.866010590E0,1.866827911E1,1.942886147E1
4.652690583E0,-3.544030151E0,3.803440704E0,1.775877045E1,1.850406006E1
4.662632583E0,-3.468886414E0,3.843108215E0,1.650273239E1,1.729574601E1
4.672573583E0,-3.492686920E0,3.905977478E0,1.500494705E1,1.589351937E1
4.682514583E0,-3.512595520E0,3.862867126E0,1.336735245E1,1.435082510E1
4.692456583E0,-3.451672211E0,3.691323853E0,1.166808609E1,1.271550808E1
4.702397584E0,-3.282523956E0,3.492387543E0,1.002435425E1,1.111122911E1
4.712338584E0,-3.076851654E0,3.244353333E0,8.453221436E0,9.562938737E0
4.722280583E0,-2.880609741E0,2.920277252E0,7.141648865E0,8.235841197E0
4.732221583E0,-2.711162109E0,2.614014130E0,6.190676422E0,7.246236569E0
4.742162583E0,-2.377056885E0,2.225871277E0,5.445675659E0,6.345099350E0
4.752104583E0,-1.971999207E0,1.731299744E0,4.779860229E0,5.452819774E0
4.762045583E0,-1.590891724E0,1.318308563E0,4.209546204E0,4.689259343E0
4.771986583E0,-1.099912720E0,9.904902649E-1,3.630699921E0,3.920824004E0
4.781928584E0,-6.280938721E-1,6.418652344E-1,3.011287994E0,3.142347574E0
4.791869584E0,-4.306544495E-1,4.317022705E-1,2.311642914E0,2.390716015E0
4.801810583E0,-3.567082214E-1,4.737648010E-1,1.620829468E0,1.725914831E0
4.811752583E0,-2.483335876E-1,6.144721985E-1,8.770262146E-1,1.099281872E0
4.821693583E0,-2.008822632E-1,6.547384644E-1,3.517684937E-2,6.857649387E-1
4.831634583E0,-1.772314453E-1,7.044351196E-1,-6.405180359E-1,9.684540140E-1
4.841576583E0,-1.571731567E-2,7.875123596E-1,-1.111738129E0,1.362491988E0
4.851517583E0,2.008822632E-1,6.093827820E-1,-1.315913544E0,1.464011446E0
4.861458583E0,4.574487305E-1,2.842588806E-1,-1.200952606E0,1.316187530E0
4.871400584E0,6.718029785E-1,6.301895142E-2,-8.860075378E-1,1.113687563E0
4.881341583E0,7.943980408E-1,2.514770508E-2,-2.565664673E-1,8.351808226E-1
4.891282583E0,9.605525208E-1,2.718347168E-1,5.444178772E-1,1.137077870E0
4.901224583E0,1.263672180E0,6.794371033E-1,1.451381836E0,2.040835954E0
4.911165583E0,1.716330872E0,1.400188293E0,2.373763733E0,3.246701892E0
4.921106583E0,1.892664185E0,2.410886536E0,3.760480042E0,4.851366998E0
4.931048583E0,1.191073151E0,3.162024536E0,6.397695923E0,7.235161888E0
4.940989583E0,-1.181044006E-1,3.484304352E0,1.088566315E1,1.143031004E1
4.950931584E0,-1.467847595E0,3.273093567E0,1.636711441E1,1.675560062E1
4.960872584E0,-2.371817780E0,2.703078918E0,2.142629379E1,2.172598032E1
4.970813583E0,-2.811303864E0,1.946552124E0,2.449117035E1,2.472872661E1
4.980755583E0,-2.829865265E0,1.409468994E0,2.523961395E1,2.543684046E1
4.990696583E0,-2.186802521E0,1.733694763E0,2.485626114E1,2.501242732E1
5.000637583E0,-1.494791565E0,2.632425842E0,2.455942841E1,2.474529433E1
5.010579583E0,-7.891589355E-1,3.278482361E0,2.420885742E1,2.444258571E1
5.020520583E0,1.312770081E-1,3.586092682E0,2.334575226E1,2.361993740E1
5.030461583E0,8.807684326E-1,3.680695953E0,2.202714432E1,2.234990744E1
5.040403584E0,1.202898560E0,3.635789337E0,2.056857742E1,2.092205311E1
5.050344583E0,1.229842529E0,3.639830933E0,1.908112061E1,1.946407063E1
5.060285583E0,1.118923187E0,3.833378448E0,1.760264511E1,1.804992782E1
5.070227583E0,8.255332947E-1,4.083807678E0,1.599618576E1,1.652988050E1
5.080168583E0,5.019062805E-1,4.265080719E0,1.442415482E1,1.504988590E1
5.090109583E0,2.243833923E-1,4.298910370E0,1.305315582E1,1.374466643E1
5.100051583E0,2.305206299E-2,4.127067719E0,1.180624878E1,1.250682732E1
5.109992583E0,-7.289840698E-2,3.884871368E0,1.063867676E1,1.132603121E1
5.119933583E0,-5.673202515E-2,3.645219727E0,9.426647186E0,1.010705311E1
5.129875583E0,3.248245239E-2,3.355272675E0,8.210576019E0,8.869750188E0
5.139816583E0,2.083666992E-1,2.980152740E0,6.960375824E0,7.574401537E0
5.149757583E0,3.224295044E-1,2.655477905E0,5.698050842E0,6.294704687E0
5.159699583E0,4.355941772E-1,2.324665833E0,4.601880341E0,5.174081193E0
5.169640583E0,4.851411438E-1,1.971999207E0,3.801794128E0,4.310195053E0
5.179581583E0,4.686753845E-1,1.678010559E0,3.260220337E0,3.696540639E0
5.189523583E0,4.445755005E-1,1.461410980E0,2.774330750E0,3.167061814E0
5.199464583E0,3.987707520E-1,1.249601440E0,2.191742249E0,2.554262312E0
5.209405583E0,4.138893127E-1,1.133592682E0,1.497935028E0,1.923576377E0
5.219347583E0,5.114863586E-1,1.081351318E0,8.330177307E-1,1.457689099E0
5.229288583E0,6.450086975E-1,1.030008087E0,3.716770935E-1,1.270864565E0
5.239229583E0,7.973918152E-1,9.859996033E-1,2.281256104E-1,1.288437123E0
5.249171583E0,9.309141541E-1,8.669970703E-1,3.251239014E-1,1.313008238E0
5.259112583E0,9.550140381E-1,6.511459351E-1,5.197192383E-1,1.267340100E0
5.269053583E0,9.521699524E-1,4.421804810E-1,8.198451233E-1,1.332027486E0
5.278995583E0,8.761280823E-1,3.164419556E-1,1.038540344E0,1.395099270E0
5.288936583E0,8.622070313E-1,1.990859985E-1,1.266665955E0,1.545146867E0
5.298878583E0,8.909472656E-1,3.037184143E-1,1.531016235E0,1.797231932E0
5.308819583E0,7.586224365E-1,5.966592407E-1,1.954934692E0,2.180201803E0
5.318760583E0,3.306623840E-1,1.016087036E0,2.482437744E0,2.702640862E0
5.328702583E0,-2.739303589E-1,1.443448334E0,3.177292786E0,3.500538584E0
5.338643583E0,-6.902146912E-1,1.836530914E0,4.287683716E0,4.715238463E0
5.348584583E0,-1.251098328E0,2.304308167E0,5.551505585E0,6.139568178E0
5.358526583E0,-2.041903839E0,2.807861023E0,7.064259796E0,7.871290954E0
5.368467583E0,-2.889740753E0,3.147055664E0,9.143885193E0,1.009282901E1
5.378408583E0,-3.667673035E0,3.310366058E0,1.196237411E1,1.294251689E1
5.388350583E0,-3.992647247E0,3.294499054E0,1.535686523E1,1.620580963E1
5.398291583E0,-4.267326050E0,3.215463409E0,1.849434082E1,1.925071217E1
5.408232583E0,-4.443060608E0,3.301534424E0,2.076721436E1,2.149228022E1
5.418174583E0,-4.528682556E0,3.649860077E0,2.226544876E1,2.301261943E1
5.428115583E0,-4.543052673E0,4.231700134E0,2.307002563E1,2.389084964E1
5.438056584E0,-4.425097961E0,4.816384277E0,2.284564224E1,2.376346816E1
5.447998583E0,-4.270768890E0,5.189857635E0,2.179662369E1,2.280935978E1
5.457939583E0,-4.138593750E0,5.424419861E0,2.063803299E1,2.173662105E1
5.467880583E0,-4.013453979E0,5.566773834E0,1.976879059E1,2.092610487E1
5.477822583E0,-3.972588959E0,5.622757416E0,1.913081726E1,2.033187235E1
5.487763583E0,-4.178560638E0,5.645061035E0,1.856319763E1,1.984740259E1
5.497704583E0,-4.579576721E0,5.642516327E0,1.786115753E1,1.928293188E1
5.507646583E0,-4.982688446E0,5.681136017E0,1.680854645E1,1.842904567E1
5.517587584E0,-5.257666626E0,5.749992828E0,1.518187912E1,1.706443464E1
5.527528584E0,-5.434149628E0,5.940396881E0,1.305914337E1,1.534143158E1
5.537470583E0,-5.294040985E0,6.095923462E0,1.102352646E1,1.366401436E1
5.547411583E0,-4.789589996E0,5.987099762E0,9.390721893E0,1.212316764E1
5.557352583E0,-4.059857483E0,5.666316833E0,8.043523407E0,1.064367690E1
5.567294583E0,-3.161425781E0,5.205724640E0,6.853348389E0,9.168564017E0
5.577235583E0,-2.350561981E0,4.677323456E0,5.779331818E0,7.797638912E0
5.587176583E0,-1.725761261E0,4.051025848E0,4.847968597E0,6.549187879E0
5.597118584E0,-1.181942139E0,3.424428864E0,4.012705536E0,5.406061966E0
5.607059584E0,-7.770341492E-1,2.812950439E0,3.323538666E0,4.422938108E0
5.617001583E0,-5.956114197E-1,2.133663025E0,2.803220673E0,3.572858380E0
5.626942583E0,-4.119433594E-1,1.603315887E0,2.271676025E0,2.810841712E0
5.636883583E0,-1.142124939E-1,1.221609650E0,1.654808807E0,2.060040490E0
5.646825583E0,2.116598511E-1,8.511300659E-1,1.021475830E0,1.346341395E0
5.656766583E0,4.258644104E-1,5.888754272E-1,5.460644531E-1,9.090220854E-1
5.666707583E0,5.593867493E-1,4.189787292E-1,2.272274780E-1,7.349075027E-1
5.676649584E0,6.677613831E-1,3.513194275E-1,2.634521484E-2,7.549997849E-1
5.686590584E0,6.676116943E-1,2.883004761E-1,-1.466949463E-2,7.273498010E-1
5.696531584E0,6.689588928E-1,3.132984924E-1,-6.286926270E-3,7.387160964E-1
5.706473583E0,6.083349609E-1,3.314108276E-1,5.927673340E-2,6.952828867E-1
5.716414583E0,4.252656555E-1,3.254232788E-1,2.067201233E-1,5.740073149E-1
5.726355583E0,2.989283752E-1,5.797444153E-1,3.100053406E-1,7.221946218E-1
5.736297583E0,2.817141724E-1,8.815168762E-1,5.777984619E-1,1.091002264E0
5.746238583E0,1.883084106E-1,1.317260742E0,9.812095642E-1,1.653302189E0
5.756179583E0,1.529818726E-1,2.043251038E0,1.684147797E0,2.652288080E0
5.766121584E0,1.154100037E-1,2.991379395E0,2.804268494E0,4.101901015E0
5.776062584E0,-1.781295776E-2,4.085753632E0,4.832700348E0,6.328403645E0
5.786003583E0,-2.306703186E-1,5.080285492E0,8.105943604E0,9.569160422E0
5.795945583E0,-2.270777893E-1,5.475763092E0,1.223525665E1,1.340660476E1
5.805886583E0,-4.342469788E-1,4.963977356E0,1.656141037E1,1.729479561E1
5.815827583E0,-7.243437195E-1,4.247118073E0,2.050525909E1,2.095300304E1
5.825769583E0,-8.713380432E-1,4.157604218E0,2.280313065E1,2.319542347E1
5.835710583E0,-1.309925995E0,4.186643829E0,2.345158218E1,2.385834444E1
5.845651583E0,-1.793420563E0,4.248914337E0,2.318244186E1,2.363673499E1
5.855593584E0,-2.172881470E0,4.339176636E0,2.264386185E1,2.315802986E1
5.865534583E0,-2.392474823E0,4.413122864E0,2.185081100E1,2.242002522E1
5.875475583E0,-2.290387115E0,4.553979950E0,2.053804092E1,2.116118455E1
5.885417583E0,-1.924697571E0,4.729265442E0,1.866753067E1,1.935321972E1
5.895358583E0,-1.512903900E0,4.966671753E0,1.664523605E1,1.743618622E1
5.905300583E0,-1.169068909E0,5.219945068E0,1.503593262E1,1.595912962E1
5.915241500E0,-9.159452820E-1,5.343587952E0,1.393901367E1,1.495623583E1
5.925182500E0,-6.387217712E-1,5.253026276E0,1.323068665E1,1.424967788E1
5.935123500E0,-3.799099731E-1,5.045707397E0,1.270632706E1,1.367677747E1
5.945065500E0,-2.878514099E-1,4.784201202E0,1.209664490E1,1.301154323E1
5.955006500E0,-2.600093079E-1,4.643793182E0,1.124177261E1,1.216593077E1
5.964948500E0,-3.327580261E-1,4.520749054E0,1.021386017E1,1.117456216E1
5.974889500E0,-3.802093506E-1,4.333787842E0,9.066945190E0,1.005662823E1
5.984830500E0,-3.167413330E-1,4.130510559E0,7.934250641E0,8.950629910E0
5.994772500E0,-1.728904724E-1,3.803590393E0,6.963519287E0,7.936484855E0
6.004713500E0,-1.990859985E-2,3.402274933E0,6.243217163E0,7.110107708E0
6.014654500E0,8.532257080E-2,2.946921844E0,5.735622711E0,6.448953108E0
6.024596500E0,1.083746338E-1,2.456242218E0,5.353317719E0,5.890915166E0
6.034537500E0,3.308120728E-2,1.945803680E0,5.063670044E0,5.424758118E0
6.044478500E0,-7.319778442E-2,1.498683472E0,4.789589996E0,5.019121676E0
6.054420500E0,-2.460882568E-1,9.940827942E-1,4.546645203E0,4.660551752E0
6.064361500E0,-1.878593445E-1,6.228547668E-1,4.203558655E0,4.253603714E0
6.074302500E0,-2.814147949E-2,3.995191956E-1,3.730542297E0,3.751979926E0
6.084244500E0,1.193019104E-1,3.080593872E-1,3.128643951E0,3.146036635E0
6.094185500E0,1.983375549E-1,4.085005188E-1,2.376009064E0,2.419014165E0
6.104126500E0,2.438429260E-1,6.200106812E-1,1.556463318E0,1.693059561E0
6.114068500E0,2.941383362E-1,8.523275757E-1,8.714877319E-1,1.253981867E0
6.124009500E0,5.689668274E-1,1.292262726E0,4.375401306E-1,1.478210935E0
6.133950500E0,8.699908447E-1,1.687440948E0,3.725752258E-1,1.934723061E0
6.143892500E0,9.412426758E-1,1.976190491E0,5.417234802E-1,2.254934802E0
6.153833500E0,9.277706909E-1,2.304757233E0,1.250499573E0,2.781440910E0
6.163774500E0,7.331753540E-1,2.720592499E0,2.310146027E0,3.643616927E0
6.173716500E0,2.540217590E-1,3.271746368E0,3.304528198E0,4.657119063E0
6.183657500E0,-4.712200928E-1,3.841162262E0,4.535867615E0,5.962438337E0
6.193598500E0,-1.291663971E0,4.380790100E0,6.336622925E0,7.811050365E0
6.203540500E0,-2.091600494E0,4.793481903E0,8.547225952E0,1.002034595E1
6.213481500E0,-2.706372070E0,4.949607239E0,1.100301910E1,1.236484901E1
6.223422500E0,-3.025658112E0,5.100792847E0,1.334190536E1,1.460065524E1
6.233364500E0,-3.212918701E0,5.109025726E0,1.510913040E1,1.626993583E1
6.243305500E0,-3.226690063E0,5.145250397E0,1.631472336E1,1.740848439E1
6.253247500E0,-2.877017212E0,5.633684692E0,1.705777817E1,1.819294993E1
6.263188500E0,-2.265838165E0,6.435118103E0,1.735056931E1,1.864368587E1
6.273129500E0,-1.625619507E0,7.233707428E0,1.746103958E1,1.896989892E1
6.283071500E0,-1.115630035E0,7.890541534E0,1.742077332E1,1.915694702E1
6.293012500E0,-8.187973022E-1,8.128546600E0,1.747331406E1,1.928886733E1
6.302953500E0,-8.228388977E-1,7.891140289E0,1.770054153E1,1.939732790E1
6.312895500E0,-1.047821045E0,7.494315491E0,1.800111649E1,1.952697847E1
6.322836500E0,-1.283431091E0,7.204218750E0,1.828896790E1,1.969858649E1
6.332777500E0,-1.406774597E0,7.057074738E0,1.827085556E1,1.963683991E1
6.342719500E0,-1.469494171E0,7.038064270E0,1.776939835E1,1.916886223E1
6.352660500E0,-1.520687714E0,7.122638397E0,1.685225555E1,1.835873052E1
6.362601500E0,-1.579365692E0,7.190148010E0,1.556403442E1,1.721719466E1
6.372543500E0,-1.725611572E0,7.039261780E0,1.404933426E1,1.580862849E1
6.382484500E0,-1.936822357E0,6.760242004E0,1.230650848E1,1.417400098E1
6.392425500E0,-2.099234619E0,6.443800049E0,1.035651352E1,1.237686218E1
6.402367500E0,-2.110161896E0,6.087840271E0,8.382418671E0,1.057258366E1
6.412308500E0,-1.825603638E0,5.685027924E0,6.603368225E0,8.902631243E0
6.422249500E0,-1.247356110E0,5.138664093E0,5.164260864E0,7.391302740E0
6.432191500E0,-5.572911072E-1,4.496649170E0,4.098177795E0,6.109458927E0
6.442132500E0,8.562194824E-2,3.830983429E0,3.293151855E0,5.052584912E0
6.452073500E0,5.755531311E-1,3.175346832E0,2.681673431E0,4.195886236E0
6.462015500E0,9.377998352E-1,2.435585175E0,2.057321777E0,3.323268958E0
6.471956500E0,1.208437042E0,1.716181183E0,1.422791290E0,2.535731254E0
6.481897500E0,1.367256775E0,1.154998169E0,7.560777283E-1,1.942952750E0
6.491839500E0,1.442849579E0,6.355783081E-1,1.969903564E-1,1.588892663E0
6.501780500E0,1.523382111E0,1.484912109E-1,-1.166075134E-1,1.535037461E0
6.511721500E0,1.686542816E0,-2.180964661E-1,-2.535726929E-1,1.719387056E0
6.521663500E0,1.779798889E0,-5.050497437E-1,-3.617976379E-1,1.885114548E0
6.531604500E0,1.750160522E0,-6.613247681E-1,-5.869294739E-1,1.960841276E0
6.541545500E0,1.763632507E0,-6.777905273E-1,-8.631051636E-1,2.077197666E0
6.551487500E0,1.748813324E0,-6.336323547E-1,-1.017434235E0,2.120143963E0
6.561428500E0,1.660496979E0,-4.257147217E-1,-1.035845947E0,2.002862968E0
6.571370500E0,1.500330048E0,-5.478607178E-2,-7.321275330E-1,1.670330054E0
6.581311500E0,1.401535492E0,4.231700134E-1,-2.130070496E-1,1.479441313E0
6.591252500E0,1.421893158E0,1.030157776E0,7.255412292E-1,1.899846118E0
6.601194500E0,1.099014587E0,1.872156830E0,2.315235443E0,3.173817798E0
6.611135500E0,6.333329773E-1,3.059637451E0,4.645290070E0,5.598322233E0
6.621076500E0,1.359173584E-1,4.433630219E0,7.822133789E0,8.992292670E0
6.631018500E0,-4.805007935E-1,5.455555115E0,1.131916168E1,1.257447350E1
6.640959500E0,-1.315913544E0,5.627397766E0,1.521256531E1,1.627333332E1
6.650900500E0,-1.857038269E0,5.098098450E0,1.948827393E1,2.022948392E1
6.660842500E0,-2.295775909E0,4.430486755E0,2.313274521E1,2.366481990E1
6.670783500E0,-2.676434326E0,3.927382965E0,2.478336273E1,2.523495009E1
6.680724500E0,-2.889890442E0,3.883524170E0,2.431723206E1,2.479437439E1
6.690666500E0,-2.675386505E0,4.389322357E0,2.256392807E1,2.314205466E1
6.700607500E0,-2.195185089E0,5.147046661E0,2.044194077E1,2.119395832E1
6.710548500E0,-1.752256165E0,5.888305206E0,1.856888580E1,1.955878472E1
6.720490500E0,-1.399439850E0,6.436465302E0,1.699056793E1,1.822267588E1
6.730431500E0,-1.307530975E0,6.660848694E0,1.590457626E1,1.729254431E1
6.740372500E0,-1.222507782E0,6.586603088E0,1.521151749E1,1.662131552E1
6.750314500E0,-1.053958282E0,6.295159149E0,1.454046295E1,1.587970150E1
6.760255500E0,-1.045426025E0,6.010301514E0,1.389261017E1,1.517304377E1
6.770196500E0,-1.315614166E0,5.883664856E0,1.312141388E1,1.444021658E1
6.780138500E0,-1.702110443E0,5.803132324E0,1.217597992E1,1.359514662E1
6.790079500E0,-1.921853485E0,5.618117065E0,1.117575989E1,1.265521115E1
6.800020500E0,-1.855092316E0,5.292544098E0,1.005159760E1,1.151029994E1
6.809962500E0,-1.587598572E0,4.876110077E0,8.799301758E0,1.018452896E1
6.819903500E0,-1.334175568E0,4.468807068E0,7.540569305E0,8.866253239E0
6.829844500E0,-1.129401398E0,4.021237793E0,6.401887207E0,7.643955829E0
6.839786500E0,-1.013991394E0,3.537443848E0,5.440586243E0,6.568231587E0
6.849727500E0,-9.481283569E-1,3.039130096E0,4.701872406E0,5.678279955E0
6.859668500E0,-9.645941162E-1,2.460134125E0,4.180506592E0,4.945638188E0
6.869610500E0,-8.890013123E-1,1.912872162E0,3.917353821E0,4.449164438E0
6.879551500E0,-7.530839539E-1,1.471290436E0,3.742816772E0,4.091516636E0
6.889492500E0,-6.542893982E-1,1.088835754E0,3.618724823E0,3.835208894E0
6.899434500E0,-4.171824646E-1,7.292834473E-1,3.496129761E0,3.595666678E0
6.909375583E0,-2.231858826E-1,4.709207153E-1,3.286715240E0,3.327773329E0
6.919317584E0,-1.302291870E-2,3.805087280E-1,2.924468536E0,2.949147794E0
6.929258583E0,2.025288391E-1,4.162843323E-1,2.460433502E0,2.503606118E0
6.939199583E0,3.749702454E-1,5.179229736E-1,1.986668701E0,2.087031246E0
6.949141583E0,5.309458923E-1,7.177574158E-1,1.626218262E0,1.855172521E0
6.959082583E0,6.517446899E-1,9.698332214E-1,1.481618958E0,1.886939944E0
6.969023583E0,5.939648438E-1,1.130000153E0,1.721420288E0,2.143124445E0
6.978965583E0,3.272195435E-1,1.343605957E0,2.240241394E0,2.632685150E0
6.988906583E0,-6.436614990E-3,1.546434174E0,2.905757446E0,3.291644941E0
6.998847583E0,-6.295907593E-1,1.648222504E0,3.760779419E0,4.154092414E0
7.008789583E0,-1.447789307E0,1.980531464E0,4.884941711E0,5.466374875E0
7.018730583E0,-2.376757507E0,2.681823120E0,5.972579956E0,6.965117575E0
7.028671583E0,-3.107986908E0,3.414848785E0,7.491172028E0,8.799910976E0
7.038613583E0,-3.509302368E0,3.761378174E0,9.401349792E0,1.071674143E1
7.048554583E0,-3.755989380E0,3.739822998E0,1.192405380E1,1.304901496E1
7.058495583E0,-3.666176147E0,3.659290466E0,1.478954498E1,1.567041464E1
7.068437583E0,-3.763024750E0,3.487896881E0,1.765578461E1,1.838620434E1
7.078378583E0,-3.899540863E0,3.447181549E0,2.004451721E1,2.070922862E1
7.088319583E0,-3.917353821E0,3.955075378E0,2.097273697E1,2.169893956E1
7.098261583E0,-3.855831757E0,4.828509064E0,2.067665268E1,2.158022021E1
7.108202583E0,-3.670367432E0,5.765261078E0,1.959590012E1,2.075353304E1
7.118143583E0,-3.614383850E0,6.548282776E0,1.827774124E1,1.974891397E1
7.128085583E0,-3.699257355E0,7.041058044E0,1.714205292E1,1.889738028E1
7.138026583E0,-3.926484833E0,7.401059418E0,1.636172562E1,1.838203005E1
7.147967583E0,-4.177213440E0,7.600744171E0,1.601070557E1,1.820887467E1
7.157909583E0,-4.513114929E0,7.629185028E0,1.594020218E1,1.823904373E1
7.167850583E0,-4.873415680E0,7.546107788E0,1.573108704E1,1.811521522E1
7.177791583E0,-5.172344055E0,7.428452454E0,1.497590744E1,1.749893861E1
7.187733583E0,-5.359005890E0,7.304809570E0,1.363484619E1,1.637034568E1
7.197674583E0,-5.296885071E0,7.070247345E0,1.198018707E1,1.488523669E1
7.207615583E0,-4.822671204E0,6.619684296E0,1.037178177E1,1.321560573E1
7.217557583E0,-4.016298065E0,6.071075134E0,9.064250793E0,1.162537078E1
7.227498583E0,-3.206631775E0,5.496120758E0,7.955955505E0,1.018759337E1
7.237439584E0,-2.457290039E0,4.833897858E0,6.970255280E0,8.831155162E0
7.247381583E0,-1.761686554E0,4.146227875E0,6.074218597E0,7.562464987E0
7.257322583E0,-1.055754547E0,3.422183533E0,5.294789429E0,6.392241617E0
7.267263583E0,-4.885839844E-1,2.714604950E0,4.560416565E0,5.329652295E0
7.277205583E0,-1.549278259E-1,2.118544464E0,3.889661407E0,4.431895660E0
7.287146583E0,-9.415420532E-2,1.669927368E0,3.278482361E0,3.680484889E0
7.297088583E0,-1.032852173E-2,1.331780548E0,2.561174011E0,2.886755692E0
7.307029583E0,1.097218323E-1,1.026116180E0,1.856589203E0,2.124117879E0
7.316970584E0,2.369572449E-1,7.999365234E-1,1.182840271E0,1.447466160E0
7.326912583E0,4.475692749E-1,6.906637573E-1,6.221063232E-1,1.031673863E0
7.336853583E0,5.610333252E-1,6.297404480E-1,2.350112915E-1,8.755351112E-1
7.346794583E0,5.358856201E-1,6.436614990E-1,-8.951385498E-2,8.423100696E-1
7.356736583E0,4.120930481E-1,6.662644958E-1,-2.246827698E-1,8.149916599E-1
7.366677583E0,2.764750671E-1,7.336244202E-1,-1.357676697E-1,7.956608026E-1
7.376618583E0,9.205856323E-2,7.271878052E-1,1.986369324E-1,7.594297294E-1
7.386560583E0,-6.002517700E-2,6.483018494E-1,6.294410706E-1,9.055906200E-1
7.396501584E0,-1.305285645E-1,6.209088135E-1,1.065334625E0,1.239961017E0
7.406442584E0,-2.146536255E-1,7.312294006E-1,1.738035736E0,1.897772598E0
7.416384583E0,-2.742297363E-1,1.013692017E0,2.827170868E0,3.015902613E0
7.426325583E0,-3.787124634E-1,1.517244873E0,4.331542511E0,4.605183564E0
7.436266583E0,-7.685018921E-1,2.065854034E0,6.081253967E0,6.468384486E0
7.446208583E0,-1.285676422E0,2.939287720E0,8.363857269E0,8.958040220E0
7.456149583E0,-2.096839600E0,3.923790436E0,1.126093277E1,1.210790959E1
7.466090583E0,-2.935096436E0,4.762047272E0,1.459315338E1,1.562856394E1
7.476032584E0,-3.413800964E0,5.094505920E0,1.780247955E1,1.882913450E1
7.485973584E0,-3.745660858E0,4.856051788E0,1.996832565E1,2.088887847E1
7.495914583E0,-4.053420868E0,4.454287262E0,2.073203751E1,2.158907768E1
7.505856583E0,-3.892355804E0,4.314028931E0,2.060599960E1,2.140954224E1
7.515797583E0,-3.291205902E0,4.699028320E0,2.050016968E1,2.128778665E1
7.525738583E0,-2.606080627E0,5.142256622E0,2.053265213E1,2.132660927E1
7.535680583E0,-2.082768860E0,5.347330170E0,2.019495438E1,2.099447661E1
7.545621583E0,-1.579814758E0,5.450316010E0,1.950653595E1,2.031518408E1
7.555562583E0,-1.259630585E0,5.347928925E0,1.853505615E1,1.933223524E1
7.565504584E0,-1.068927155E0,5.105283508E0,1.741733047E1,1.818158205E1
7.575445584E0,-9.442364502E-1,4.837789764E0,1.621068970E1,1.694350179E1
7.585386583E0,-8.657995605E-1,4.688250732E0,1.509640686E1,1.583132350E1
7.595328583E0,-8.945397949E-1,4.577331390E0,1.392389511E1,1.468424391E1
7.605269583E0,-8.376580811E-1,4.361180878E0,1.263791931E1,1.339546842E1
7.615210583E0,-6.707551575E-1,3.969595184E0,1.122770187E1,1.192765223E1
7.625152583E0,-6.072871399E-1,3.568429413E0,9.787846069E0,1.043572790E1
7.635093583E0,-5.739065552E-1,3.261866913E0,8.489146729E0,9.112340900E0
7.645034583E0,-4.496649170E-1,2.909349976E0,7.309599609E0,7.880149889E0
7.654976584E0,-3.141966248E-1,2.465672607E0,6.320456543E0,6.791644266E0
7.664917583E0,-2.728825378E-1,2.076481934E0,5.576653290E0,5.956954257E0
7.674859583E0,-4.561015320E-1,1.720821533E0,4.981640625E0,5.290179456E0
7.684800583E0,-5.815406799E-1,1.317111053E0,4.356540527E0,4.588291235E0
7.694741583E0,-7.589218140E-1,1.012943573E0,3.703298950E0,3.913622378E0
7.704683583E0,-9.018745422E-1,8.981323242E-1,2.974763947E0,3.235620481E0
7.714624583E0,-8.018824768E-1,9.030720520E-1,2.022743683E0,2.355853698E0
7.724565583E0,-5.788462830E-1,8.857081604E-1,1.016536102E0,1.467272167E0
7.734507584E0,-2.333647156E-1,9.422904968E-1,1.815724182E-1,9.875925344E-1
7.744448583E0,7.649093628E-2,1.029858398E0,-3.150947571E-1,1.079696203E0
7.754389583E0,2.076182556E-1,1.168170776E0,-3.983216858E-1,1.251554421E0
7.764331583E0,1.320254517E-1,1.307680664E0,3.832031250E-2,1.314887024E0
7.774272583E0,3.308120728E-2,1.328786774E0,8.232879639E-1,1.563512625E0
7.784213583E0,-2.128573608E-1,1.432521057E0,1.831142120E0,2.334631941E0
7.794155583E0,-9.544152832E-1,1.549128571E0,2.855611725E0,3.386033990E0
7.804096583E0,-2.029479675E0,1.797611847E0,3.880530396E0,4.733784137E0
7.814037583E0,-3.167563019E0,2.289488983E0,5.041965179E0,6.379390892E0
7.823979583E0,-4.322112122E0,3.103196869E0,6.611601105E0,8.486680928E0
7.833920583E0,-5.248685303E0,3.896696777E0,8.268206177E0,1.054021710E1
7.843861583E0,-5.851930847E0,4.427642670E0,1.045770309E1,1.277547135E1
7.853803583E0,-6.177354126E0,4.553680573E0,1.312201263E1,1.520141198E1
7.863744583E0,-6.664590912E0,4.380790100E0,1.551628372E1,1.744600683E1
7.873685583E0,-7.110962677E0,3.956572266E0,1.742316833E1,1.922984787E1
7.883627583E0,-7.092401276E0,3.845503235E0,1.869926468E1,2.036547447E1
7.893568583E0,-6.551875305E0,4.214186554E0,1.917183197E1,2.069409528E1
7.903509583E0,-5.872288513E0,4.746779022E0,1.881766846E1,2.027610243E1
7.913452209E0,-5.221142578E0,5.065765686E0,1.803359894E1,1.944564225E1
7.923393209E0,-4.687951355E0,5.148842926E0,1.743918503E1,1.877798301E1
7.933334208E0,-4.411476288E0,5.143304443E0,1.723231522E1,1.851667873E1
7.943276208E0,-4.567601624E0,5.021757202E0,1.730745895E1,1.859110447E1
7.953217208E0,-5.155578918E0,4.847669220E0,1.739622437E1,1.878053548E1
7.963158208E0,-5.854026489E0,4.737498322E0,1.702439758E1,1.861568236E1
7.973100208E0,-6.362968140E0,4.758005676E0,1.605426498E1,1.791271631E1
7.983041208E0,-6.603068848E0,5.003046112E0,1.444885345E1,1.665534013E1
7.992982208E0,-6.779402161E0,5.278623047E0,1.249496658E1,1.516404777E1
8.002924209E0,-6.525081024E0,5.311554565E0,1.054392380E1,1.348938929E1
8.012865209E0,-5.869743805E0,5.144501953E0,8.811875610E0,1.177153110E1
8.022806208E0,-4.925357666E0,4.870721283E0,7.599995728E0,1.028314198E1
8.032748208E0,-3.827989655E0,4.459975433E0,6.735543365E0,8.939375263E0
8.042689208E0,-2.802023163E0,3.918251953E0,6.084846497E0,7.760759567E0
8.052631208E0,-1.848805389E0,3.328029327E0,5.591622162E0,6.764621126E0
8.062572208E0,-9.627978516E-1,2.731669464E0,5.188959503E0,5.942583486E0
8.072513208E0,-2.285746765E-1,2.133812714E0,4.692891083E0,5.160293576E0
8.082455209E0,2.487826538E-1,1.667831726E0,4.103267212E0,4.436254872E0
8.092396209E0,4.879852295E-1,1.332828369E0,3.431464233E0,3.713422657E0
8.102337208E0,4.183799744E-1,1.138233032E0,2.782563629E0,3.035337969E0
8.112279208E0,2.742297363E-1,1.076411591E0,2.111658783E0,2.385993855E0
8.122220208E0,7.409591675E-2,1.118773499E0,1.433568878E0,1.819962657E0
8.132161208E0,-2.035766602E-1,1.245410156E0,8.437953186E-1,1.518051532E0
8.142103208E0,-5.285508728E-1,1.408121796E0,4.089495850E-1,1.558657364E0
8.152044208E0,-9.336085510E-1,1.631307678E0,1.182540894E-1,1.883288002E0
8.161985208E0,-1.105600891E0,1.808389435E0,-9.879455566E-2,2.121882665E0
8.171927209E0,-1.136436768E0,1.854643250E0,-1.440005493E-1,2.179891343E0
8.181868208E0,-1.306183777E0,1.915117493E0,1.496887207E-2,2.318192213E0
8.191809208E0,-1.371148682E0,2.086810455E0,2.899470520E-1,2.513741410E0
8.201751208E0,-1.269809418E0,2.196981354E0,6.764433289E-1,2.626160430E0
8.211692208E0,-1.375938721E0,2.207609253E0,1.720821533E0,3.118969818E0
8.221633208E0,-1.469943237E0,2.343825989E0,3.214415588E0,4.241075449E0
8.231575208E0,-1.620829468E0,2.596799927E0,4.900659027E0,5.778141303E0
8.241516208E0,-1.738185425E0,3.052003326E0,6.781946869E0,7.637461372E0
8.251457208E0,-1.920206909E0,3.695365448E0,8.450227661E0,9.420682984E0
8.261399208E0,-2.258353729E0,4.296215973E0,9.857750702E0,1.098785157E1
8.271340208E0,-2.678829346E0,4.755760345E0,1.147289200E1,1.270514203E1
8.281281208E0,-3.066074066E0,5.026098175E0,1.351674179E1,1.474329616E1
8.291223208E0,-3.733236694E0,4.908891907E0,1.591385696E1,1.706707706E1
8.301164208E0,-4.195774841E0,4.415966949E0,1.840243195E1,1.938439558E1
8.311105208E0,-4.527335358E0,3.702700195E0,2.044134201E1,2.126159019E1
8.321047208E0,-4.473148041E0,3.155887299E0,2.158870605E1,2.227197583E1
8.330988208E0,-4.213737488E0,3.048560486E0,2.173031158E1,2.234403156E1
8.340929208E0,-4.071832581E0,3.242108002E0,2.123184814E1,2.186052288E1
8.350871208E0,-3.922742615E0,3.530408478E0,2.050705536E1,2.117524529E1
8.360812208E0,-3.526067505E0,3.835773468E0,1.963916016E1,2.031853641E1
8.370753208E0,-3.109184418E0,4.001628571E0,1.862936005E1,1.930629728E1
8.380695208E0,-2.792742462E0,3.964805145E0,1.769410492E1,1.834667379E1
8.390636208E0,-2.500999146E0,3.828738098E0,1.677890808E1,1.739097434E1
8.400577208E0,-2.265838165E0,3.741918640E0,1.548514847E1,1.609117152E1
8.410519208E0,-2.061812439E0,3.810775452E0,1.376672195E1,1.443245348E1
8.420460208E0,-1.942360840E0,3.945345612E0,1.180475189E1,1.259724910E1
8.430401208E0,-1.909279633E0,4.036506042E0,9.895322571E0,1.085615671E1
8.440343208E0,-1.635199585E0,4.023333435E0,8.271050262E0,9.341914261E0
8.450284208E0,-1.296154633E0,3.885170746E0,7.033723297E0,8.139277116E0
8.460226208E0,-1.093176727E0,3.651806030E0,6.233487396E0,7.306646820E0
8.470167208E0,-9.372010803E-1,3.300486603E0,5.686973877E0,6.641779096E0
8.480108208E0,-8.466394043E-1,2.802023163E0,5.265300751E0,6.024244690E0
8.490050208E0,-9.210346985E-1,2.201771393E0,4.909640350E0,5.458999043E0
8.499991208E0,-1.008602600E0,1.660946045E0,4.470154266E0,4.874248674E0
8.509932208E0,-1.091230774E0,1.152303772E0,3.859873352E0,4.173393209E0
8.519874208E0,-1.200503540E0,8.002359009E-1,3.252885590E0,3.558489975E0
8.529815208E0,-1.086590424E0,6.909631348E-1,2.476150818E0,2.790955334E0
8.539756208E0,-9.096583557E-1,7.083270264E-1,1.477727051E0,1.874268587E0
8.549698208E0,-5.938151550E-1,8.205935669E-1,4.628375244E-1,1.113646629E0
8.559639208E0,-2.839595032E-1,1.038690033E0,-2.631527710E-1,1.108494188E0
8.569580209E0,2.739303589E-2,1.422042847E0,-6.231541443E-1,1.552828813E0
8.579522208E0,3.230282593E-1,1.735041962E0,-5.754034424E-1,1.856288498E0
8.589463208E0,4.622387695E-1,1.983674927E0,7.753875732E-2,2.038294177E0
8.599404208E0,4.918771362E-1,2.208956451E0,9.330097961E-1,2.447843745E0
8.609346208E0,2.619552612E-1,2.384840698E0,1.903591461E0,3.062637126E0
8.619287208E0,-3.555107117E-1,2.401156769E0,3.333118744E0,4.123302348E0
8.629228208E0,-1.152004395E0,2.478096771E0,4.954247589E0,5.657971978E0
8.639170208E0,-2.303859100E0,2.819237366E0,6.432124329E0,7.391081751E0
8.649111209E0,-3.396437073E0,3.474275208E0,7.623945923E0,9.040515718E0
8.659052209E0,-4.502636719E0,4.026626587E0,8.772657166E0,1.065114890E1
8.668994208E0,-5.601052551E0,4.289929047E0,1.047850983E1,1.263227806E1
8.678935208E0,-6.486611023E0,4.439617767E0,1.242925323E1,1.470621176E1
8.688876208E0,-6.733148346E0,4.875661011E0,1.414483566E1,1.640681971E1
8.698818208E0,-6.442452850E0,5.172044678E0,1.528980469E1,1.737910735E1
8.708759208E0,-5.954467621E0,5.337450714E0,1.589649307E1,1.779445298E1
8.718700208E0,-5.426814880E0,5.594765625E0,1.654659119E1,1.829047299E1
8.728642209E0,-4.957840118E0,5.927823029E0,1.729368759E1,1.894177645E1
8.738583209E0,-4.721182251E0,6.068680115E0,1.781999313E1,1.940800339E1
8.748524209E0,-4.641398163E0,6.141279144E0,1.782987259E1,1.942066536E1
8.758466208E0,-4.552033997E0,6.278693390E0,1.735131775E1,1.900555792E1
8.768407208E0,-4.379293213E0,6.514303436E0,1.653102356E1,1.829997536E1
8.778348208E0,-4.264332275E0,6.896309052E0,1.575922852E1,1.772277889E1
8.788290208E0,-4.342918854E0,7.254214783E0,1.525343033E1,1.743994590E1
8.798231208E0,-4.511468353E0,7.381899261E0,1.493399460E1,1.725891011E1
8.808172208E0,-4.779261475E0,7.232210541E0,1.469883362E1,1.706463944E1
8.818114209E0,-4.943470001E0,6.990463257E0,1.421384216E1,1.659330531E1
8.828055209E0,-5.016069031E0,6.679110718E0,1.338651260E1,1.577878919E1
8.837996208E0,-5.040168915E0,6.358776855E0,1.205787552E1,1.453374376E1
8.847938208E0,-4.821324005E0,6.091582489E0,1.034154465E1,1.293445353E1
8.857879208E0,-4.410877533E0,5.867648163E0,8.498128052E0,1.122957328E1
8.867820208E0,-3.695365448E0,5.454357605E0,6.987170105E0,9.603451919E0
8.877762208E0,-2.798580322E0,4.832850037E0,5.972430267E0,8.176699493E0
8.887703208E0,-1.867516479E0,4.045487366E0,5.260061646E0,6.893608224E0
8.897645209E0,-1.096619568E0,3.299289093E0,4.628973999E0,5.789238575E0
8.907586209E0,-3.670367432E-1,2.661016388E0,3.996389465E0,4.815272884E0
8.917526333E0,6.421646118E-2,2.084415436E0,3.383713531E0,3.974723730E0
8.927468333E0,3.423381042E-1,1.647024994E0,2.972967682E0,3.415907426E0
8.937409333E0,6.755451965E-1,1.348994751E0,2.552492065E0,2.965023422E0
8.947350333E0,9.093589783E-1,1.060544586E0,2.033371582E0,2.467040446E0
8.957292333E0,1.126557312E0,8.907975769E-1,1.503623199E0,2.079311046E0
8.967233333E0,1.225052490E0,9.270222473E-1,9.840536499E-1,1.824413724E0
8.977174333E0,1.182091827E0,1.072968750E0,4.306544495E-1,1.653501219E0
8.987116333E0,1.099912720E0,1.152752838E0,4.191284180E-3,1.593318758E0
8.997057333E0,1.035845947E0,1.289568329E0,1.631607056E-2,1.654155227E0
9.006998333E0,9.184899902E-1,1.398092651E0,4.501139832E-1,1.732307571E0
9.016940333E0,6.563850403E-1,1.361718292E0,1.304088135E0,1.996437801E0
9.026881333E0,2.594105530E-1,1.130000153E0,2.428250427E0,2.690835245E0
9.036822333E0,3.891906738E-2,8.860075378E-1,3.509601746E0,3.619921058E0
9.046764333E0,6.137237549E-2,8.280780029E-1,4.323908386E0,4.402915339E0
9.056705333E0,-1.143621826E-1,1.077908478E0,4.726421356E0,4.849126131E0
9.066646333E0,-4.667294312E-1,1.771865387E0,4.963677979E0,5.291071951E0
9.076588333E0,-7.993377686E-1,2.693947906E0,5.383405151E0,6.072672164E0
9.086529333E0,-1.072519684E0,3.525319061E0,6.665938110E0,7.616620238E0
9.096470333E0,-1.039288788E0,4.176015930E0,8.992998962E0,9.969616872E0
9.106412333E0,-1.004111938E0,4.395160217E0,1.193303513E1,1.275629262E1
9.116353333E0,-1.112636261E0,4.186793518E0,1.494971191E1,1.556473854E1
9.126294333E0,-1.016685791E0,3.840114441E0,1.742241989E1,1.786955074E1
9.136236333E0,-1.157692566E0,3.407514038E0,1.886556885E1,1.920575674E1
9.146177333E0,-1.381327515E0,2.886148224E0,1.934262680E1,1.960548721E1
9.156118333E0,-1.381028137E0,2.784359894E0,1.940684326E1,1.965414623E1
9.166060333E0,-1.105900269E0,3.249592438E0,1.920730820E1,1.951162614E1
9.176001333E0,-8.141569519E-1,3.817361755E0,1.883757706E1,1.923770807E1
9.185942333E0,-7.069798279E-1,4.221670990E0,1.838716370E1,1.887882717E1
9.195884333E0,-7.291337585E-1,4.452341309E0,1.791175232E1,1.847121681E1
9.205825333E0,-6.978488159E-1,4.508773956E0,1.735970032E1,1.794924039E1
9.215766334E0,-7.503895569E-1,4.406237183E0,1.675570633E1,1.734161772E1
9.225708333E0,-9.044192505E-1,4.265230408E0,1.614093475E1,1.671944794E1
9.235649333E0,-9.433383179E-1,4.151167603E0,1.535716461E1,1.593626633E1
9.245590333E0,-9.364526367E-1,4.006268921E0,1.432326462E1,1.490245092E1
9.255532333E0,-9.502239990E-1,3.951333160E0,1.300570450E1,1.362586911E1
9.265473333E0,-1.013991394E0,3.958518219E0,1.156390274E1,1.226466027E1
9.275414333E0,-9.942324829E-1,3.926335144E0,1.010294083E1,1.088457713E1
9.285356333E0,-9.110055542E-1,3.802093506E0,8.899742889E0,9.720661996E0
9.295297334E0,-7.283853149E-1,3.560944977E0,7.999664612E0,8.786666501E0
9.305238334E0,-5.885760498E-1,3.135230255E0,7.364834747E0,8.026012794E0
9.315180333E0,-5.614823914E-1,2.632575531E0,6.881639557E0,7.389362584E0
9.325121333E0,-5.622308350E-1,2.173480225E0,6.341263275E0,6.726941335E0
9.335062333E0,-5.691165161E-1,1.756746826E0,5.721551971E0,6.012171819E0
9.345004333E0,-5.351371765E-1,1.359173584E0,5.036576385E0,5.244123026E0
9.354945333E0,-4.833448792E-1,1.046174469E0,4.227359161E0,4.381628552E0
9.364886333E0,-4.363426208E-1,8.577163696E-1,3.382216644E0,3.516455841E0
9.374828334E0,-5.384303284E-1,7.354206848E-1,2.564018097E0,2.721201867E0
9.384769334E0,-5.891748047E-1,7.581733704E-1,1.834135895E0,2.070267686E0
9.394711333E0,-6.144721985E-1,8.370593262E-1,1.270108795E0,1.640555013E0
9.404652333E0,-5.616320801E-1,8.981323242E-1,8.933422852E-1,1.385688531E0
9.414593333E0,-5.049000549E-1,9.448352051E-1,6.947053528E-1,1.276813674E0
9.424535333E0,-4.454736328E-1,1.008303223E0,8.177494812E-1,1.372529184E0
9.434476333E0,-3.504212952E-1,1.216370544E0,1.155447235E0,1.713887598E0
9.444417333E0,-5.427713013E-1,1.421144714E0,1.654359741E0,2.247478395E0
9.454359333E0,-8.271798706E-1,1.603914642E0,2.361040192E0,2.971746878E0
9.464300334E0,-1.398691406E0,1.851350098E0,3.464096375E0,4.169388268E0
9.474241334E0,-2.211501160E0,2.322420502E0,4.839885406E0,5.805933613E0
9.484183333E0,-2.909200287E0,3.018323364E0,6.385720825E0,7.638792620E0
9.494124333E0,-3.581452332E0,3.578009491E0,8.088430023E0,9.542098981E0
9.504065333E0,-4.116888885E0,3.823498993E0,9.837692413E0,1.132908252E1
9.514007333E0,-4.394411774E0,3.700005798E0,1.203676941E1,1.333734290E1
9.523948333E0,-4.629872131E0,3.242407379E0,1.470377335E1,1.575277348E1
9.533889333E0,-4.800367584E0,2.855462036E0,1.717019440E1,1.805582366E1
9.543831334E0,-4.714296570E0,2.996319122E0,1.867276978E1,1.949037843E1
9.553772334E0,-4.246369629E0,3.522175598E0,1.910477142E1,1.988541343E1
9.563713333E0,-3.613336029E0,4.237088928E0,1.892304932E1,1.972538758E1
9.573655333E0,-2.939437408E0,4.906197510E0,1.838072708E1,1.924999206E1
9.583596333E0,-2.522254944E0,5.246439972E0,1.754561371E1,1.848608836E1
9.593537333E0,-2.259401550E0,5.394033051E0,1.668101166E1,1.767644302E1
9.603479333E0,-2.197131042E0,5.334307251E0,1.625574600E1,1.724910133E1
9.613420333E0,-2.438279572E0,5.171745300E0,1.635888153E1,1.732931509E1
9.623361333E0,-2.806813202E0,4.884941711E0,1.664239197E1,1.757014702E1
9.633303334E0,-3.272045746E0,4.553381195E0,1.671858353E1,1.763379139E1
9.643244333E0,-3.780238953E0,4.418361969E0,1.644180908E1,1.743975960E1
9.653185333E0,-4.083208923E0,4.542304230E0,1.540102341E1,1.656794027E1
9.663127333E0,-4.064348145E0,4.801864471E0,1.352452560E1,1.491608598E1
9.673068333E0,-3.711232452E0,5.054389343E0,1.129176865E1,1.291604185E1
9.683009333E0,-3.032543793E0,5.110672302E0,9.364825745E0,1.109122421E1
9.692951333E0,-2.247875519E0,4.965623932E0,7.979905701E0,9.663811897E0
9.702892333E0,-1.672023010E0,4.633614349E0,7.191944275E0,8.717230371E0
9.712833333E0,-1.151854706E0,4.151766357E0,6.749165039E0,8.007194382E0
9.722775333E0,-6.650669861E-1,3.500171356E0,6.350993042E0,7.282075682E0
9.732716333E0,-1.493893433E-1,2.920876007E0,5.877078552E0,6.564593372E0
9.742657333E0,2.631527710E-1,2.406994629E0,5.342540131E0,5.865629341E0
9.752599333E0,5.956114197E-1,1.980681152E0,4.831951904E0,5.256007039E0
9.762540333E0,7.821235657E-1,1.650467834E0,4.335434418E0,4.704439705E0
9.772481333E0,9.217831421E-1,1.445394287E0,3.834276581E0,4.200062583E0
9.782423333E0,1.113235016E0,1.288221130E0,3.207529907E0,3.631398351E0
9.792364333E0,1.204395447E0,1.237925720E0,2.553839264E0,3.083038026E0
9.802305333E0,1.098565521E0,1.322350159E0,2.086660767E0,2.703628913E0
9.812247333E0,1.007255402E0,1.465751953E0,1.769021301E0,2.508471366E0
9.822188333E0,8.228388977E-1,1.484463043E0,1.595981140E0,2.329774705E0
9.832129333E0,5.533992004E-1,1.488055573E0,1.570084991E0,2.232874144E0
9.842071333E0,2.507286072E-1,1.475930786E0,1.736389160E0,2.292658683E0
9.852012333E0,-2.844085693E-1,1.462009735E0,2.138602753E0,2.606143211E0
9.861953333E0,-8.626560974E-1,1.549128571E0,2.524350586E0,3.084853441E0
9.871895333E0,-1.295106812E0,1.691183167E0,2.950065308E0,3.638720582E0
9.881836333E0,-1.596579895E0,2.092648315E0,3.337310028E0,4.250397929E0
9.891777333E0,-1.818717957E0,2.674188995E0,3.967798920E0,5.118832880E0
9.901719333E0,-2.014061737E0,3.232078857E0,4.914131012E0,6.217030000E0
9.911660125E0,-2.241289215E0,3.767066345E0,6.510561218E0,7.848666993E0
9.921602125E0,-2.371219025E0,4.031716003E0,9.054970093E0,1.019165821E1
9.931543125E0,-2.393822021E0,4.045936432E0,1.237880814E1,1.324140764E1
9.941484125E0,-2.387086029E0,3.679648132E0,1.538710236E1,1.600002841E1
9.951426125E0,-2.427801361E0,3.194506989E0,1.762060776E1,1.807166047E1
9.961367125E0,-2.621049500E0,2.677332458E0,1.890029663E1,1.926808819E1
9.971308125E0,-2.688559113E0,2.377955017E0,1.943723007E1,1.976585270E1
9.981250125E0,-2.693798218E0,2.270478516E0,1.976908997E1,2.008055128E1
9.991191125E0,-2.674338684E0,2.099533997E0,2.015932846E1,2.044403714E1
1.000113213E1,-2.743345184E0,1.823957062E0,2.012265472E1,2.039053691E1
1.001107412E1,-2.676883392E0,1.769470367E0,1.931538345E1,1.958011154E1
1.002101512E1,-2.485281830E0,1.953737183E0,1.777119461E1,1.805018207E1
1.003095612E1,-2.218536530E0,2.212249603E0,1.611309265E1,1.641486239E1
1.004089813E1,-2.020198975E0,2.540217590E0,1.486169495E1,1.521196522E1
1.005083913E1,-1.914369049E0,2.854713593E0,1.418390442E1,1.459442850E1
1.006078013E1,-1.890119476E0,2.905308380E0,1.396056885E1,1.438439609E1
1.007072213E1,-1.832339630E0,2.874622192E0,1.384710480E1,1.426054811E1
1.008066313E1,-1.719174957E0,2.833457794E0,1.355581055E1,1.395507238E1
1.009060413E1,-1.609153748E0,2.782114563E0,1.306393341E1,1.345347142E1
1.010054612E1,-1.634151764E0,2.818189545E0,1.219708603E1,1.262464066E1
1.011048712E1,-1.681752777E0,2.870580597E0,1.090302704E1,1.139932121E1
1.012042812E1,-1.629212036E0,2.828218689E0,9.409582672E0,9.959588288E0
1.013037013E1,-1.598525848E0,2.645149384E0,7.920030212E0,8.501704459E0
1.014031113E1,-1.521436157E0,2.553988953E0,6.790329437E0,7.412570500E0
1.015025212E1,-1.352736969E0,2.420167236E0,5.882317657E0,6.502981453E0
1.016019413E1,-1.000968475E0,2.072889404E0,5.259313202E0,5.741008947E0
1.017013513E1,-6.785389709E-1,1.674268341E0,4.708309021E0,5.042991518E0
1.018007613E1,-3.854484558E-1,1.393452301E0,4.243226166E0,4.482772370E0
1.019001812E1,-1.570234680E-1,1.154100037E0,3.837569733E0,4.010429493E0
1.019995912E1,-2.380050659E-2,1.027762756E0,3.346890106E0,3.501219235E0
1.020990012E1,6.361770630E-2,1.093925171E0,2.866089935E0,3.068418324E0
1.021984213E1,1.245410156E-1,1.266516266E0,2.128573608E0,2.479999904E0
1.022978313E1,2.487826538E-1,1.577120361E0,1.258882141E0,2.033220521E0
1.023972412E1,4.107458496E-1,1.898651733E0,4.794529724E-1,2.000866240E0
1.024966613E1,4.221221924E-1,2.237696686E0,-9.864486694E-2,2.279299106E0
1.025960713E1,6.756948853E-1,2.634820862E0,-2.549198914E-1,2.732000861E0
1.026954813E1,7.134164429E-1,2.911295929E0,-1.267863464E-1,3.000113629E0
1.027949012E1,7.620652771E-1,2.948718109E0,4.599934387E-1,3.080142194E0
1.028943112E1,7.167095947E-1,2.855611725E0,1.519041138E0,3.312955922E0
1.029937212E1,5.542973328E-1,2.858605499E0,2.735561371E0,3.995268070E0
1.030931413E1,3.571572876E-1,2.976260834E0,3.975882111E0,4.979289953E0
1.031925512E1,1.155596924E-1,3.068319397E0,5.244044952E0,6.076836795E0
1.032919612E1,-9.235794067E-2,3.246149597E0,6.299649811E0,7.087425833E0
1.033913813E1,-4.023632813E-1,3.361559601E0,7.460635529E0,8.192866510E0
1.034907913E1,-7.713459778E-1,3.420836334E0,9.054970093E0,9.710282139E0
1.035902013E1,-1.005758514E0,3.426524506E0,1.145403122E1,1.199781028E1
1.036896212E1,-1.441502380E0,3.427871704E0,1.423734329E1,1.471496441E1
1.037890312E1,-1.886826324E0,3.635190582E0,1.651485718E1,1.701514713E1
1.038884513E1,-2.151775360E0,3.809877319E0,1.758049118E1,1.811681464E1
1.039878612E1,-2.226619720E0,4.067341919E0,1.752450760E1,1.812758870E1
1.040872712E1,-1.829046478E0,4.675676880E0,1.667637131E1,1.741576083E1
1.041866913E1,-1.478026428E0,5.395080872E0,1.571701630E1,1.668280735E1
1.042861013E1,-1.381776581E0,6.005810852E0,1.500853958E1,1.622452868E1
1.043855113E1,-1.491348724E0,6.356381836E0,1.461201416E1,1.600433282E1
1.044849312E1,-1.485959930E0,6.448590088E0,1.444690750E1,1.589042250E1
1.045843412E1,-1.498084717E0,6.315666504E0,1.429063248E1,1.569567067E1
1.046837512E1,-1.655108185E0,6.076164551E0,1.415546356E1,1.549310516E1
1.047831712E1,-1.970801697E0,5.812862091E0,1.418195847E1,1.545319938E1
1.048825812E1,-2.415676575E0,5.516628113E0,1.455318649E1,1.575004496E1
1.049819912E1,-2.804567871E0,5.145100708E0,1.497920059E1,1.608459240E1
1.050814113E1,-3.037782898E0,4.757107544E0,1.495465164E1,1.598436120E1
1.051808213E1,-3.010539551E0,4.404141541E0,1.416788773E1,1.513898457E1
1.052802313E1,-3.024161224E0,4.085454254E0,1.316347641E1,1.411076181E1
1.053796512E1,-2.838846588E0,3.982019348E0,1.207553879E1,1.302820652E1
1.054790612E1,-2.585124207E0,3.903432770E0,1.094688583E1,1.190604737E1
1.055784712E1,-2.093097382E0,3.749403076E0,9.708361359E0,1.061561870E1
1.056778912E1,-1.515298920E0,3.512445831E0,8.432714081E0,9.259809572E0
1.057773012E1,-8.452922058E-1,3.251688080E0,7.309749298E0,8.044900812E0
1.058767112E1,-2.212399292E-1,2.930007019E0,6.317013702E0,6.966961343E0
1.059761313E1,2.947370911E-1,2.544109497E0,5.558990021E0,6.120599083E0
1.060755413E1,7.351213074E-1,2.216440887E0,4.999154205E0,5.517658590E0
1.061749513E1,1.019230499E0,1.900447998E0,4.548890533E0,5.034177042E0
1.062743712E1,1.237326965E0,1.659449158E0,4.200415192E0,4.682759583E0
1.063737812E1,1.388662262E0,1.470092926E0,3.760779419E0,4.270013809E0
1.064731913E1,1.452130280E0,1.338516541E0,3.410956879E0,3.941438279E0
1.065726112E1,1.596130829E0,1.320553894E0,2.983445892E0,3.632140636E0
1.066720212E1,1.702110443E0,1.341809692E0,2.551893311E0,3.348102848E0
1.067714312E1,1.636397095E0,1.363215179E0,2.245480499E0,3.094888326E0
1.068708513E1,1.542691956E0,1.419647827E0,2.117796021E0,2.979993021E0
1.069702613E1,1.299298096E0,1.439257050E0,2.234852600E0,2.958750165E0
1.070696713E1,9.906399536E-1,1.470092926E0,2.570305023E0,3.122340251E0
1.071690912E1,5.610333252E-1,1.521885223E0,3.117417297E0,3.514140525E0
1.072685013E1,8.143066406E-2,1.673370209E0,3.974534912E0,4.313203749E0
1.073679113E1,-1.264869690E-1,2.151775360E0,4.898413696E0,5.351690658E0
1.074673312E1,-3.206332397E-1,2.572999420E0,5.966592407E0,6.505640372E0
1.075667412E1,-8.559201050E-1,3.087329865E0,7.198829956E0,7.879553138E0
1.076661512E1,-1.454225922E0,3.680097198E0,8.888516235E0,9.729522562E0
1.077655713E1,-2.192041626E0,3.803740082E0,1.128099106E1,1.210513298E1
1.078649813E1,-2.716550903E0,3.525768127E0,1.467937408E1,1.533931919E1
1.079643913E1,-3.041525116E0,2.749183044E0,1.868624176E1,1.913072172E1
1.080638113E1,-3.307521973E0,1.530417480E0,2.167747147E1,2.198168893E1
1.081632213E1,-3.266507263E0,1.651066589E-1,2.266362076E1,2.289840684E1
1.082626313E1,-2.605332184E0,-5.117857361E-1,2.248848495E1,2.264468229E1
1.083620512E1,-1.831142120E0,-3.180885315E-1,2.189646606E1,2.197520166E1
1.084614612E1,-1.430126038E0,2.818638611E-1,2.122586060E1,2.127585170E1
1.085608712E1,-1.164278870E0,9.551637268E-1,2.001442978E1,2.007100601E1
1.086602913E1,-8.559201050E-1,1.519789581E0,1.863804199E1,1.871948100E1
1.087597013E1,-6.099815369E-1,1.821861420E0,1.722887238E1,1.733566554E1
1.088591113E1,-3.971241760E-1,1.848206635E0,1.587868011E1,1.599081166E1
1.089585313E1,-7.484436035E-2,1.887724457E0,1.472862167E1,1.484928960E1
1.090579413E1,2.083666992E-1,2.043101349E0,1.361433884E1,1.376836598E1
1.091573650E1,3.523672485E-1,2.157313843E0,1.249406845E1,1.268384453E1
1.092567750E1,4.474195862E-1,2.123184814E0,1.141586060E1,1.162023972E1
1.093561850E1,6.116281128E-1,2.032323761E0,1.047192352E1,1.068483089E1
1.094556050E1,6.369255066E-1,1.958227844E0,9.605076141E0,9.823330294E0
1.095550150E1,6.162684631E-1,1.847458191E0,8.800798645E0,9.013708747E0
1.096544250E1,5.989045715E-1,1.661694489E0,7.932304688E0,8.126584333E0
1.097538450E1,6.328839111E-1,1.418749695E0,7.062613220E0,7.231452015E0
1.098532550E1,6.291416931E-1,1.207838287E0,6.064937897E0,6.215960448E0
1.099526650E1,5.926176453E-1,1.094823303E0,4.988077240E0,5.141084350E0
1.100520850E1,5.143304443E-1,1.082399139E0,3.888763275E0,4.069226402E0
1.101514950E1,4.173321533E-1,1.119671631E0,2.853965149E0,3.094018060E0
1.102509050E1,3.854484558E-1,1.175655212E0,1.931732941E0,2.293976426E0
1.103503250E1,4.273612976E-1,1.199156342E0,1.240620117E0,1.777569094E0
1.104497350E1,5.763015747E-1,1.224902802E0,7.488926697E-1,1.547045768E0
1.105491450E1,6.783892822E-1,1.175655212E0,4.668791199E-1,1.435393085E0
1.106485650E1,7.011419678E-1,1.150357819E0,4.761598206E-1,1.428863655E0
1.107479750E1,7.747888184E-1,1.109642487E0,6.035449219E-1,1.481847035E0
1.108473850E1,7.637118530E-1,9.581575012E-1,1.069226532E0,1.626212461E0
1.109468050E1,7.825726318E-1,7.774832153E-1,1.729204102E0,2.051108700E0
1.110462150E1,5.583389282E-1,6.800358582E-1,2.343526611E0,2.503259496E0
1.111456250E1,2.231858826E-1,6.471043396E-1,2.868934021E0,2.949464084E0
1.112450450E1,-2.915936279E-1,9.286688232E-1,3.337010651E0,3.476074325E0
1.113444550E1,-1.118623810E0,1.343306580E0,3.857628021E0,4.235219681E0
1.114438650E1,-1.791175232E0,1.730551300E0,4.713099060E0,5.330705325E0
1.115432850E1,-2.260748749E0,2.066901855E0,6.228697357E0,6.941162651E0
1.116426950E1,-2.651735687E0,2.238295441E0,8.175548859E0,8.881512696E0
1.117421050E1,-2.948119354E0,2.455643463E0,1.004276596E1,1.075075535E1
1.118415250E1,-3.311713257E0,2.656675415E0,1.203527252E1,1.276217668E1
1.119409350E1,-3.727398834E0,2.670596466E0,1.399275192E1,1.472490047E1
1.120403450E1,-4.065395966E0,2.702779541E0,1.577299988E1,1.651120791E1
1.121397650E1,-4.144431610E0,2.898273010E0,1.733440292E1,1.805707132E1
1.122391750E1,-4.102518768E0,3.377426605E0,1.836920105E1,1.912237480E1
1.123385850E1,-4.125870209E0,4.066743164E0,1.881482437E1,1.968651368E1
1.124380050E1,-4.056714020E0,4.738546143E0,1.870734787E1,1.971992932E1
1.125374150E1,-3.951931915E0,5.199437714E0,1.806174042E1,1.920620695E1
1.126368250E1,-3.828588409E0,5.660628662E0,1.709250595E1,1.840800276E1
1.127362450E1,-4.018393707E0,5.984255676E0,1.638058640E1,1.789643581E1
1.128356550E1,-4.255350952E0,6.114634552E0,1.608285553E1,1.772441845E1
1.129350650E1,-4.458029480E0,5.992189178E0,1.608719650E1,1.773635389E1
1.130344850E1,-4.650828552E0,5.816155243E0,1.607716736E1,1.771815956E1
1.131338950E1,-4.915029144E0,5.707032166E0,1.590562408E1,1.759876715E1
1.132333150E1,-5.085075531E0,5.629942474E0,1.547856216E1,1.723775310E1
1.133327250E1,-4.803660736E0,5.664370880E0,1.445005096E1,1.624697593E1
1.134321350E1,-4.209695892E0,5.623505859E0,1.285481827E1,1.464894912E1
1.135315550E1,-3.315904541E0,5.561534729E0,1.091485245E1,1.269093753E1
1.136309650E1,-2.455942841E0,5.464386749E0,9.280850372E0,1.104650901E1
1.137303750E1,-1.598974915E0,5.245841217E0,8.099357300E0,9.781367978E0
1.138297950E1,-8.640032959E-1,4.810696106E0,7.337741089E0,8.816560724E0
1.139292050E1,-1.669029236E-1,4.284989319E0,6.876250763E0,8.103814818E0
1.140286150E1,2.570155334E-1,3.677702179E0,6.515500946E0,7.486207510E0
1.141280350E1,7.006929016E-1,3.109184418E0,6.159990234E0,6.935667089E0
1.142274450E1,8.879534912E-1,2.546504517E0,5.791157227E0,6.388321272E0
1.143268550E1,9.961784363E-1,1.993255005E0,5.299579468E0,5.748998132E0
1.144262750E1,1.059646454E0,1.441652069E0,4.839436340E0,5.159588684E0
1.145256850E1,1.089733887E0,9.854008484E-1,4.450844421E0,4.687062069E0
1.146250950E1,9.431886292E-1,6.704557800E-1,4.035607910E0,4.198243317E0
1.147245150E1,7.729925537E-1,5.114863586E-1,3.447480927E0,3.569910436E0
1.148239250E1,6.610253906E-1,5.751040649E-1,2.922073517E0,3.050608610E0
1.149233350E1,3.888912964E-1,6.442602539E-1,2.252815247E0,2.375180888E0
1.150227550E1,1.633103943E-1,9.223818970E-1,1.723964996E0,1.962017828E0
1.151221650E1,-3.210823059E-1,1.231339417E0,1.267414398E0,1.796003859E0
1.152215750E1,-7.698490906E-1,1.517544250E0,1.150507507E0,2.054087559E0
1.153209950E1,-1.043779449E0,1.774859161E0,1.640438690E0,2.632610810E0
1.154204050E1,-1.411564636E0,1.669178925E0,2.795586548E0,3.548799396E0
1.155198150E1,-1.491199036E0,1.501826935E0,4.132755890E0,4.643148711E0
1.156192350E1,-1.531914368E0,1.592687988E0,5.189558258E0,5.640472637E0
1.157186450E1,-1.744771729E0,2.064806213E0,6.107449493E0,6.678966417E0
1.158180550E1,-1.873354340E0,2.809806976E0,7.174131317E0,7.929226437E0
1.159174750E1,-2.216291199E0,3.648812256E0,8.532107391E0,9.540578289E0
1.160168850E1,-2.521656189E0,4.346960449E0,1.053060150E1,1.166826393E1
1.161162950E1,-2.660717010E0,4.593946838E0,1.312545547E1,1.415843720E1
1.162157150E1,-2.635718994E0,4.293072510E0,1.575383972E1,1.653967812E1
1.163151250E1,-2.403252411E0,3.573219452E0,1.776640457E1,1.828082741E1
1.164145350E1,-2.019450531E0,2.775977325E0,1.866513565E1,1.897818536E1
1.165139550E1,-1.346450043E0,2.474803619E0,1.876782211E1,1.897811180E1
1.166133650E1,-7.509883118E-1,2.836301880E0,1.831022369E1,1.854380984E1
1.167127750E1,-5.562432861E-1,3.523223419E0,1.752854919E1,1.788777646E1
1.168121950E1,-5.682183838E-1,4.120331726E0,1.659119843E1,1.710461548E1
1.169116050E1,-5.411247253E-1,4.600233765E0,1.539009613E1,1.607202618E1
1.170110150E1,-5.251080322E-1,5.049299927E0,1.391581192E1,1.481286568E1
1.171104350E1,-5.798941040E-1,5.461842041E0,1.231593887E1,1.348518988E1
1.172098450E1,-5.743556213E-1,5.847440186E0,1.079749649E1,1.229261451E1
1.173092550E1,-6.691085815E-1,6.037544861E0,9.637109528E0,1.139181874E1
1.174086750E1,-6.206094360E-1,5.770799561E0,9.034911804E0,1.073857136E1
1.175080850E1,-5.429209900E-1,5.215903473E0,8.730295258E0,1.018422641E1
1.176075050E1,-5.920188904E-1,4.685406647E0,8.572523346E0,9.787322327E0
1.177069150E1,-5.126838684E-1,4.164190521E0,8.076754303E0,9.101499191E0
1.178063250E1,-5.002597046E-1,3.616329803E0,7.155569916E0,8.033074246E0
1.179057450E1,-4.674778748E-1,3.227288818E0,6.203998718E0,7.008817930E0
1.180051550E1,-4.766088867E-1,2.990930328E0,5.277126160E0,6.084478677E0
1.181045650E1,-3.611988831E-1,2.718646545E0,4.554279327E0,5.316292304E0
1.182039850E1,-3.305126953E-1,2.251318359E0,3.934867401E0,4.545421263E0
1.183033950E1,-1.651066589E-1,1.977238312E0,3.612737274E0,4.121723203E0
1.184028050E1,3.412902832E-2,1.650318146E0,3.338806915E0,3.724559892E0
1.185022250E1,1.682501221E-1,1.222208405E0,3.097508698E0,3.334165806E0
1.186016350E1,3.162922668E-1,9.065148926E-1,3.107687531E0,3.252619227E0
1.187010450E1,4.227209473E-1,6.607260132E-1,3.202739868E0,3.297392080E0
1.188004650E1,3.788621521E-1,5.182223511E-1,3.371588745E0,3.432156990E0
1.188998750E1,3.158432007E-1,4.867877197E-1,3.611689453E0,3.658007643E0
1.189992850E1,2.871029663E-1,6.283932495E-1,3.553011475E0,3.619557532E0
1.190987050E1,1.664538574E-1,9.834548950E-1,3.145858154E0,3.300199076E0
1.191981208E1,-1.715432739E-1,1.374591522E0,2.702480164E0,3.036828606E0
1.192975308E1,-6.334826660E-1,1.800904999E0,2.647544403E0,3.264054299E0
1.193969508E1,-1.197210388E0,2.336191864E0,2.879861298E0,3.896755860E0
1.194963608E1,-1.789977722E0,2.784359894E0,3.437900848E0,4.772404269E0
1.195957708E1,-2.341131592E0,3.190615082E0,4.358486481E0,5.887047319E0
1.196951908E1,-2.816992035E0,3.489842834E0,5.877377930E0,7.393106144E0
1.197946008E1,-3.129392395E0,3.415297852E0,7.973319397E0,9.221235187E0
1.198940108E1,-3.314707031E0,3.043920135E0,1.067999084E1,1.158943212E1
1.199934308E1,-3.280428314E0,2.746039581E0,1.359787308E1,1.425496740E1
1.200928408E1,-3.545227661E0,2.720293121E0,1.588676331E1,1.650326883E1
1.201922508E1,-3.819457397E0,3.182382202E0,1.713382004E1,1.784050449E1
1.202916708E1,-3.982468414E0,4.048181763E0,1.710942078E1,1.802720471E1
1.203910808E1,-3.886967010E0,5.103786621E0,1.653446640E1,1.773543711E1
1.204904908E1,-3.608545990E0,6.121220856E0,1.619362518E1,1.768401667E1
1.205899108E1,-3.337908783E0,6.808292084E0,1.627610367E1,1.795566837E1
1.206893208E1,-3.481011200E0,6.963519287E0,1.650677399E1,1.825052403E1
1.207887308E1,-3.641776886E0,6.898554382E0,1.636247406E1,1.812686263E1
1.208881508E1,-3.578308868E0,6.870712280E0,1.595831451E1,1.773918780E1
1.209875608E1,-3.474574585E0,6.815477142E0,1.566911591E1,1.743687445E1
1.210869708E1,-3.308869171E0,6.795718231E0,1.548933975E1,1.723513990E1
1.211863908E1,-3.089724884E0,6.769672394E0,1.516601212E1,1.689327640E1
1.212858008E1,-2.995720367E0,6.605164490E0,1.470601868E1,1.639724135E1
1.213852108E1,-3.070864105E0,6.321055298E0,1.425231216E1,1.589070006E1
1.214846308E1,-3.384012909E0,6.072422333E0,1.390443558E1,1.554539112E1
1.215840408E1,-3.633544006E0,5.823190613E0,1.358395203E1,1.521959078E1
1.216834508E1,-3.585194550E0,5.495222626E0,1.303489380E1,1.459313359E1
1.217828708E1,-3.389252014E0,5.183570709E0,1.207419159E1,1.356991293E1
1.218822808E1,-2.887345734E0,4.972659302E0,1.064810715E1,1.210149957E1
1.219816908E1,-2.215542755E0,4.720733185E0,9.006171570E0,1.040697256E1
1.220811108E1,-1.663341064E0,4.529880066E0,7.541766815E0,8.953477738E0
1.221805208E1,-1.071172485E0,4.366719360E0,6.339167633E0,7.771788388E0
1.222799308E1,-5.849835205E-1,4.162843323E0,5.142406311E0,6.641973571E0
1.223793508E1,-1.362167358E-1,3.846401367E0,4.152514801E0,5.661866976E0
1.224787608E1,3.870950317E-1,3.507955170E0,3.427722015E0,4.919844535E0
1.225781708E1,7.159611511E-1,3.059487762E0,2.971919861E0,4.324970913E0
1.226775908E1,1.007554779E0,2.647095337E0,2.857707367E0,4.023527277E0
1.227770008E1,1.225351868E0,2.207758942E0,2.923570404E0,3.863023512E0
1.228764108E1,1.309177551E0,1.797162781E0,3.021167450E0,3.751158845E0
1.229758308E1,1.339564362E0,1.557361450E0,3.013982391E0,3.647450784E0
1.230752408E1,1.188079376E0,1.402433624E0,2.776127014E0,3.329449485E0
1.231746508E1,9.538165283E-1,1.378483429E0,2.556234283E0,3.056847436E0
1.232740708E1,6.936575317E-1,1.515298920E0,2.316133575E0,2.853378055E0
1.233734808E1,3.177891541E-1,1.702260132E0,2.048190765E0,2.682119482E0
1.234728908E1,-7.424560547E-2,1.811083832E0,1.978286133E0,2.683123754E0
1.235723108E1,-4.412823486E-1,1.864971771E0,2.166893921E0,2.892797795E0
1.236717208E1,-6.298901367E-1,1.822909241E0,2.800226898E0,3.400151521E0
1.237711308E1,-7.911048889E-1,1.745819550E0,3.924838257E0,4.367847088E0
1.238705508E1,-1.174457703E0,1.800006866E0,5.300627289E0,5.719792415E0
1.239699608E1,-1.626817017E0,2.040107574E0,6.572532349E0,7.071545375E0
1.240693708E1,-2.051633606E0,2.578088837E0,7.437134399E0,8.134292260E0
1.241687908E1,-2.383792877E0,3.350482635E0,8.243208160E0,9.211877287E0
1.242682008E1,-2.883603516E0,4.259242859E0,9.326056366E0,1.065042940E1
1.243676108E1,-3.537892914E0,4.934338989E0,1.076007431E1,1.235490132E1
1.244670308E1,-3.854933624E0,5.191204834E0,1.264435593E1,1.420172024E1
1.245664408E1,-3.747756500E0,4.793481903E0,1.502964569E1,1.621460444E1
1.246658508E1,-3.630699921E0,4.110152893E0,1.739278152E1,1.823689085E1
1.247652708E1,-3.530258789E0,3.460054779E0,1.873489059E1,1.937603757E1
1.248646808E1,-3.473975830E0,3.063679047E0,1.889116562E1,1.945072687E1
1.249640908E1,-3.340752869E0,3.115621033E0,1.843551315E1,1.899304792E1
1.250635108E1,-3.151396637E0,3.395538940E0,1.749591705E1,1.809884248E1
1.251629208E1,-2.988385620E0,3.804937592E0,1.636157593E1,1.706192151E1
1.252623308E1,-2.773282928E0,4.154011688E0,1.504521332E1,1.585261351E1
1.253617508E1,-2.439327393E0,4.453089752E0,1.360984818E1,1.452612453E1
1.254611608E1,-1.936223602E0,4.716541901E0,1.248433868E1,1.348530466E1
1.255605708E1,-1.334325256E0,4.820276184E0,1.181942139E1,1.283410333E1
1.256599908E1,-7.999365234E-1,4.812192993E0,1.154369476E1,1.253211828E1
1.257594008E1,-5.200186157E-1,4.783752136E0,1.150941605E1,1.247482912E1
1.258588108E1,-5.634283447E-1,4.693639526E0,1.142678787E1,1.236604968E1
1.259582308E1,-9.545649719E-1,4.641996918E0,1.127530289E1,1.223077205E1
1.260576408E1,-1.343605957E0,4.450844421E0,1.140568176E1,1.231685307E1
1.261570508E1,-1.596579895E0,3.785627747E0,1.202314774E1,1.270575170E1
1.262564708E1,-1.579814758E0,3.048111420E0,1.234393066E1,1.281247135E1
1.263558808E1,-1.665137329E0,2.421963501E0,1.173694290E1,1.209935611E1
1.264552908E1,-1.810634766E0,2.106868744E0,1.048315018E1,1.084498648E1
1.265547108E1,-1.781894531E0,1.983225861E0,8.888366547E0,9.279622449E0
1.266541208E1,-1.994003448E0,1.889820099E0,7.514074402E0,8.000548973E0
1.267535308E1,-2.067799988E0,1.891466675E0,6.594985657E0,7.165701556E0
1.268529508E1,-2.170187073E0,1.778900757E0,5.981710968E0,6.607198040E0
1.269523608E1,-2.069895630E0,1.653311920E0,5.647905121E0,6.238328340E0
1.270517708E1,-2.368674316E0,1.479673004E0,5.326972504E0,6.014705834E0
1.271511908E1,-2.169139252E0,1.488804016E0,4.736450500E0,5.418086917E0
1.272506008E1,-1.949396210E0,1.461261292E0,3.845503235E0,4.552287916E0
1.273500108E1,-1.769769745E0,1.388662262E0,2.937341766E0,3.699789789E0
1.274494308E1,-1.488953705E0,1.444496155E0,2.140099640E0,2.980533299E0
1.275488408E1,-1.377285919E0,1.463806000E0,1.547631683E0,2.536692401E0
1.276482508E1,-1.041534119E0,1.663640442E0,1.452279968E0,2.441640831E0
1.277476708E1,-9.250762939E-1,1.918560333E0,1.726210327E0,2.741613028E0
1.278470808E1,-9.325607300E-1,2.161505127E0,2.407743073E0,3.367343260E0
1.279464908E1,-1.280287628E0,2.292482758E0,3.393443298E0,4.290695867E0
1.280459108E1,-1.478475494E0,2.502496033E0,4.148173828E0,5.065147805E0
1.281453208E1,-1.758243713E0,2.838547211E0,4.866080933E0,5.901484124E0
1.282447308E1,-2.256258087E0,3.482508087E0,5.564977570E0,6.941724460E0
1.283441508E1,-2.710413666E0,4.338428192E0,6.236032104E0,8.065754635E0
1.284435608E1,-3.055146790E0,5.018164673E0,7.179071045E0,9.276581248E0
1.285429708E1,-3.355721741E0,5.495372314E0,8.785081329E0,1.089209067E1
1.286423908E1,-3.567381592E0,5.679489441E0,1.072908875E1,1.265291101E1
1.287418008E1,-3.482059021E0,5.892795868E0,1.245230530E1,1.420949279E1
1.288412108E1,-3.334765320E0,6.111790466E0,1.344055023E1,1.513681053E1
1.289406308E1,-3.613635406E0,6.524931335E0,1.375504623E1,1.564718462E1
1.290400408E1,-4.004472656E0,7.000642090E0,1.372989853E1,1.592340744E1
1.291394508E1,-4.157005463E0,7.489076385E0,1.379441437E1,1.623738979E1
1.292388600E1,-3.966900787E0,8.115373993E0,1.393197830E1,1.660408433E1
1.293382700E1,-3.842210083E0,8.633147278E0,1.392105103E1,1.682526291E1
1.294376800E1,-3.951782227E0,8.850794678E0,1.372436005E1,1.680211915E1
1.295371000E1,-4.035308533E0,8.815767517E0,1.353799759E1,1.665169212E1
1.296365100E1,-4.147275696E0,8.713979187E0,1.343501175E1,1.654185206E1
1.297359200E1,-4.416116638E0,8.612340546E0,1.335597610E1,1.649413816E1
1.298353400E1,-4.706063690E0,8.477770386E0,1.329415466E1,1.645460952E1
1.299347500E1,-4.829407196E0,8.335715790E0,1.311333069E1,1.627165552E1
1.300341600E1,-4.813540192E0,8.258326721E0,1.268791534E1,1.588563267E1
1.301335800E1,-4.612807617E0,8.173602905E0,1.196132629E1,1.520391743E1
1.302329900E1,-4.201463013E0,7.921527100E0,1.102068237E1,1.420768535E1
1.303324000E1,-3.919000397E0,7.667505341E0,9.973160706E0,1.317623378E1
1.304318200E1,-3.735182648E0,7.413932648E0,8.829987946E0,1.211968126E1
1.305312300E1,-3.421734467E0,7.001839600E0,7.786058807E0,1.101620335E1
1.306306400E1,-2.924169159E0,6.359974365E0,7.097041626E0,9.968351872E0
1.307300600E1,-2.382295990E0,5.571414185E0,6.700216827E0,9.033764206E0
1.308294700E1,-1.817071381E0,4.730912018E0,6.321354675E0,8.102024553E0
1.309288800E1,-1.111139374E0,4.038451996E0,5.886958008E0,7.224956735E0
1.310283000E1,-5.282514954E-1,3.372636566E0,5.388943634E0,6.379219430E0
1.311277100E1,-2.236349487E-1,2.835403748E0,4.892725525E0,5.659354209E0
1.312271200E1,-5.852828979E-2,2.482138367E0,4.392765198E0,5.045871829E0
1.313265400E1,1.221459961E-1,2.268382874E0,3.827091522E0,4.450517950E0
1.314259500E1,2.445913696E-1,1.920356598E0,3.063828735E0,3.624174516E0
1.315253600E1,4.019142151E-1,1.768123169E0,2.387535095E0,2.998019081E0
1.316247800E1,4.288581848E-1,1.606609039E0,1.784289551E0,2.439016431E0
1.317241900E1,3.902384949E-1,1.491797791E0,1.330732727E0,2.036810330E0
1.318236000E1,3.709286499E-1,1.549278259E0,1.107546844E0,1.940234831E0
1.319230200E1,1.586700439E-1,1.650916901E0,9.740245056E-1,1.923389335E0
1.320224300E1,-1.011895752E-1,1.918260956E0,9.114546204E-1,2.126197063E0
1.321218400E1,-4.572990417E-1,2.256707153E0,1.010548553E0,2.514569142E0
1.322212600E1,-8.349636841E-1,2.695594482E0,1.371448059E0,3.137556971E0
1.323206700E1,-1.164727936E0,3.078498230E0,2.068398743E0,3.887417636E0
1.324200800E1,-1.463955688E0,3.494483185E0,2.861299896E0,4.747801184E0
1.325195000E1,-1.631607056E0,3.917503510E0,3.849095764E0,5.729268150E0
1.326189100E1,-1.832040253E0,4.378395081E0,5.227878571E0,7.060979345E0
1.327183200E1,-1.982776794E0,4.870721283E0,6.648125153E0,8.476608855E0
1.328177400E1,-1.998793488E0,5.418731689E0,7.604486389E0,9.549138274E0
1.329171500E1,-1.753902740E0,5.960754547E0,8.381221161E0,1.043319883E1
1.330165600E1,-1.616638184E0,6.471342773E0,9.256151733E0,1.140912535E1
1.331159800E1,-1.618883514E0,6.784042511E0,1.038360718E1,1.250852968E1
1.332153900E1,-1.724264374E0,7.002138977E0,1.164144150E1,1.369402052E1
1.333148000E1,-1.893412628E0,7.027735748E0,1.245874191E1,1.442894075E1
1.334142200E1,-2.069147186E0,7.087311859E0,1.300600388E1,1.495551725E1
1.335136300E1,-2.221829681E0,7.122039642E0,1.353635101E1,1.545615653E1
1.336130400E1,-2.187251587E0,7.226971436E0,1.382644775E1,1.575385169E1
1.337124600E1,-2.085912323E0,7.311695251E0,1.379875534E1,1.575492198E1
1.338118700E1,-2.013762360E0,7.336244202E0,1.377600266E1,1.573702535E1
1.339112800E1,-1.990111542E0,7.428302765E0,1.374277176E1,1.574814280E1
1.340107000E1,-2.061063995E0,7.507338409E0,1.366313736E1,1.572543918E1
1.341101100E1,-2.211351471E0,7.500303040E0,1.353665039E1,1.563283483E1
1.342095200E1,-2.274669800E0,7.473508759E0,1.321227493E1,1.534899556E1
1.343089400E1,-2.294428711E0,7.537725220E0,1.260154495E1,1.486205369E1
1.344083500E1,-2.199825439E0,7.574548645E0,1.186821991E1,1.425018116E1
1.345077600E1,-2.109413452E0,7.571255493E0,1.121587646E1,1.369559855E1
1.346071800E1,-2.153122559E0,7.659721527E0,1.063044388E1,1.327831343E1
1.347065900E1,-2.310295715E0,7.691006470E0,1.009111542E1,1.289649786E1
1.348060000E1,-2.517165527E0,7.511380005E0,9.599088593E0,1.244586091E1
1.349054200E1,-2.645598450E0,7.126081238E0,9.251960449E0,1.197409692E1
1.350048300E1,-2.712658997E0,6.615642700E0,9.117090912E0,1.158648324E1
1.351042400E1,-2.676284637E0,5.941145325E0,9.054970093E0,1.115581421E1
1.352036600E1,-2.503693542E0,5.173391876E0,8.916358337E0,1.060820017E1
1.353030700E1,-2.246378632E0,4.428391113E0,8.429570618E0,9.783380071E0
1.354024800E1,-2.038011932E0,3.836671600E0,7.604785767E0,8.758213754E0
1.355019000E1,-1.832788696E0,3.378025360E0,6.673272858E0,7.700827252E0
1.356013100E1,-1.636995850E0,2.990930328E0,5.687872009E0,6.631538859E0
1.357007200E1,-1.468146973E0,2.547702026E0,4.853058014E0,5.674364567E0
1.358001400E1,-1.373843079E0,2.190844116E0,4.349355469E0,5.060052938E0
1.358995500E1,-1.308129730E0,1.911524963E0,3.985462189E0,4.609668094E0
1.359989600E1,-1.103056183E0,1.595681763E0,3.631298676E0,4.116948300E0
1.360983800E1,-8.866062927E-1,1.406924286E0,3.116668854E0,3.532581409E0
1.361977900E1,-6.093827820E-1,1.356778564E0,2.488125916E0,2.898786991E0
1.362972000E1,-4.954696655E-1,1.377734985E0,1.916913757E0,2.412094988E0
1.363966200E1,-3.546125793E-1,1.548829193E0,1.538201294E0,2.211489356E0
1.364960300E1,-2.972817993E-1,1.782792664E0,1.290017395E0,2.220556468E0
1.365954400E1,-1.995350647E-1,2.199825439E0,1.283730469E0,2.554801386E0
1.366948600E1,-2.272274780E-1,2.696193237E0,1.453477478E0,3.071430787E0
1.367942700E1,-4.243675232E-1,3.034489746E0,1.963017883E0,3.638908493E0
1.368936800E1,-9.125024414E-1,3.435505829E0,3.023263092E0,4.666420548E0
1.369931000E1,-1.348695374E0,3.946992188E0,4.461023254E0,6.107246107E0
1.370925100E1,-1.531016235E0,4.526886292E0,5.792504425E0,7.509315396E0
1.371919200E1,-1.920356598E0,5.115013275E0,6.663842468E0,8.617303912E0
1.372913400E1,-2.431393890E0,5.700146484E0,7.234006805E0,9.525450155E0
1.373907500E1,-2.916684723E0,6.387666779E0,7.972570953E0,1.062408698E1
1.374901600E1,-3.249143372E0,6.834337921E0,9.179810486E0,1.189680747E1
1.375895800E1,-3.302133179E0,7.303312683E0,1.065933380E1,1.333656090E1
1.376889900E1,-3.186274109E0,7.875572662E0,1.211760132E1,1.479909623E1
1.377884000E1,-3.030597839E0,8.470884705E0,1.308159668E1,1.587666787E1
1.378878200E1,-3.041674805E0,9.016051025E0,1.357661728E1,1.657906808E1
1.379872300E1,-2.933449860E0,9.547296295E0,1.368199814E1,1.693968913E1
1.380866400E1,-2.693049774E0,1.010578491E1,1.349758163E1,1.707524863E1
1.381860600E1,-2.645299072E0,1.065963318E1,1.318398376E1,1.715933608E1
1.382854700E1,-2.750380554E0,1.101469482E1,1.291678940E1,1.719684691E1
1.383848800E1,-2.992427216E0,1.100032471E1,1.275796967E1,1.710928269E1
1.384843000E1,-3.315904541E0,1.069765411E1,1.267773651E1,1.691626524E1
1.385837100E1,-3.604354706E0,1.014425491E1,1.271815247E1,1.666279337E1
1.386831200E1,-3.805536346E0,9.495354309E0,1.280078064E1,1.638608694E1
1.387825400E1,-4.124822388E0,8.903185730E0,1.281784515E1,1.614242950E1
1.388819500E1,-4.531227264E0,8.389903107E0,1.263193176E1,1.582681884E1
1.389813600E1,-4.766088867E0,7.871830444E0,1.206221649E1,1.517163091E1
1.390807800E1,-4.586761780E0,7.277865601E0,1.104463257E1,1.399962928E1
1.391802025E1,-4.087549896E0,6.551725616E0,9.825118561E0,1.249664465E1
1.392796125E1,-3.519630890E0,5.783672791E0,8.714877319E0,1.103574915E1
1.393790325E1,-2.946921844E0,5.042713623E0,7.719896393E0,9.680398202E0
1.394784425E1,-2.419718170E0,4.295317841E0,6.734196167E0,8.345908542E0
1.395778525E1,-1.904639282E0,3.550317078E0,5.726192322E0,7.001548447E0
1.396772725E1,-1.345252533E0,2.971470795E0,4.725972290E0,5.742312874E0
1.397766825E1,-9.656419373E-1,2.441273346E0,3.797902222E0,4.616962333E0
1.398760925E1,-6.542893982E-1,2.227817230E0,3.036884766E0,3.822817457E0
1.399755125E1,-3.591032410E-1,2.055974579E0,2.370620270E0,3.158453272E0
1.400749225E1,-2.662962341E-1,1.927242279E0,1.759590912E0,2.623230196E0
1.401743325E1,-2.213896179E-1,1.954335938E0,1.335073700E0,2.377154623E0
1.402737525E1,-1.181044006E-1,2.076481934E0,1.036744080E0,2.323911392E0
1.403731625E1,-2.116598511E-1,2.199975128E0,8.155041504E-1,2.355788080E0
1.404725725E1,-5.291496277E-1,2.341880035E0,7.484436035E-1,2.514869630E0
1.405719925E1,-9.764195251E-1,2.515069885E0,8.993298340E-1,2.843899746E0
1.406714025E1,-1.419797516E0,2.735860748E0,1.229543152E0,3.318514032E0
1.407708125E1,-1.678908691E0,3.013832703E0,1.766925659E0,3.876073817E0
1.408702325E1,-1.633702698E0,3.369792480E0,2.541864166E0,4.526097580E0
1.409696425E1,-1.387614441E0,3.944148102E0,3.542832642E0,5.480277476E0
1.410690525E1,-1.163979492E0,4.711751862E0,4.713847504E0,6.765782449E0
1.411684725E1,-1.250948639E0,5.427563324E0,6.373296661E0,8.464173112E0
1.412678825E1,-1.534608765E0,5.954018555E0,8.581205292E0,1.055663039E1
1.413672925E1,-1.760938110E0,6.407874756E0,1.076291840E1,1.264919659E1
1.414667125E1,-2.133513336E0,6.738537140E0,1.270812332E1,1.454153225E1
1.415661225E1,-2.301763458E0,6.941515045E0,1.430170944E1,1.606305199E1
1.416655325E1,-2.382295990E0,6.860533447E0,1.504730896E1,1.670819441E1
1.417649525E1,-2.234852600E0,6.751859436E0,1.490136246E1,1.651159517E1
1.418643625E1,-1.704056396E0,6.940018158E0,1.424048676E1,1.593295714E1
1.419637725E1,-1.000220032E0,7.476652222E0,1.350326981E1,1.546735478E1
1.420631925E1,-5.236111450E-1,7.881410522E0,1.310180466E1,1.529863019E1
1.421626025E1,-4.513114929E-1,7.808661804E0,1.313488586E1,1.528738395E1
1.422620125E1,-5.126838684E-1,7.641459503E0,1.332828369E1,1.537198407E1
1.423614325E1,-4.378395081E-1,7.489675140E0,1.316347641E1,1.515137117E1
1.424608425E1,-4.673281860E-1,7.204218750E0,1.235276230E1,1.430768674E1
1.425602525E1,-5.703140259E-1,6.876400452E0,1.129131958E1,1.323268828E1
1.426596725E1,-7.274871826E-1,6.558311920E0,1.042492126E1,1.233773384E1
1.427590825E1,-9.120533752E-1,6.194867706E0,9.811496887E0,1.163931692E1
1.428584925E1,-1.128952332E0,5.759423218E0,9.286388855E0,1.098555903E1
1.429579125E1,-1.321002960E0,5.309907990E0,8.672365723E0,1.025427223E1
1.430573225E1,-1.394051056E0,4.933291168E0,7.971672821E0,9.477779680E0
1.431567325E1,-1.672322388E0,4.595144348E0,7.222630463E0,8.722293537E0
1.432561525E1,-2.074835358E0,4.175866241E0,6.503226471E0,8.002171903E0
1.433555625E1,-2.199226685E0,3.844006348E0,6.015839996E0,7.470161556E0
1.434549725E1,-2.392325134E0,3.337908783E0,5.674100647E0,7.004303873E0
1.435543925E1,-2.444716187E0,2.832559662E0,5.504802704E0,6.656041187E0
1.436538025E1,-2.449206848E0,2.310595093E0,5.558391266E0,6.498705820E0
1.437532125E1,-2.348466339E0,1.919608154E0,5.713169403E0,6.468422856E0
1.438526325E1,-2.291285248E0,1.544787598E0,5.693709869E0,6.328877380E0
1.439520425E1,-2.222877502E0,1.176403656E0,5.604944458E0,6.143330720E0
1.440514525E1,-2.000440063E0,9.780661011E-1,5.418731689E0,5.858415047E0
1.441508725E1,-1.814227295E0,9.219328308E-1,4.954696655E0,5.356342014E0
1.442502825E1,-1.663790131E0,9.303153992E-1,4.206103363E0,4.617898856E0
1.443496925E1,-1.511556702E0,1.030008087E0,3.568130035E0,4.009647400E0
1.444491125E1,-1.295855255E0,1.236279144E0,3.159928894E0,3.632186336E0
1.445485225E1,-1.093027039E0,1.430724792E0,2.891537018E0,3.406268907E0
1.446479325E1,-1.011147308E0,1.533860321E0,2.839894409E0,3.382328579E0
1.447473425E1,-1.020877075E0,1.722318420E0,3.080743561E0,3.674173598E0
1.448467625E1,-1.353036346E0,1.958078156E0,3.624263306E0,4.335903819E0
1.449461725E1,-1.919757843E0,2.304008789E0,4.298461304E0,5.241249494E0
1.450455825E1,-2.613864441E0,2.707270203E0,4.997507629E0,6.255931727E0
1.451450025E1,-3.199446716E0,3.068918152E0,5.444328461E0,7.021070453E0
1.452444125E1,-3.558549957E0,3.401526489E0,5.784570923E0,7.595717281E0
1.453438225E1,-3.927083588E0,3.797004089E0,6.531367950E0,8.514575319E0
1.454432425E1,-4.350852356E0,4.086651764E0,8.079897766E0,1.004566507E1
1.455426525E1,-4.657564545E0,4.569697266E0,1.007943970E1,1.200708729E1
1.456420625E1,-4.825664978E0,4.948559418E0,1.207014999E1,1.390912663E1
1.457414825E1,-5.036127319E0,4.991669769E0,1.398736313E1,1.568201750E1
1.458408925E1,-5.185816040E0,5.150938568E0,1.528546371E1,1.694314779E1
1.459403025E1,-4.941524048E0,5.614225159E0,1.566282898E1,1.735691204E1
1.460397225E1,-4.447102203E0,6.412215729E0,1.524669434E1,1.712760686E1
1.461391325E1,-3.869453430E0,7.301366730E0,1.451321960E1,1.670078349E1
1.462385425E1,-3.414998474E0,7.933053131E0,1.386865997E1,1.633815400E1
1.463379625E1,-3.247646484E0,8.224646759E0,1.362302078E1,1.624126588E1
1.464373725E1,-3.197500763E0,8.200995941E0,1.370475082E1,1.628804901E1
1.465367825E1,-3.429967346E0,7.895930328E0,1.385009857E1,1.630753268E1
1.466362025E1,-3.942052460E0,7.567213898E0,1.401266052E1,1.640600983E1
1.467356125E1,-4.473297729E0,7.305558014E0,1.401520523E1,1.642581956E1
1.468350225E1,-5.067561951E0,7.128176880E0,1.402733002E1,1.653048932E1
1.469344425E1,-5.516029358E0,6.940616913E0,1.410935944E1,1.666351604E1
1.470338525E1,-5.694907379E0,6.573131104E0,1.394455215E1,1.643437122E1
1.471332625E1,-5.630541229E0,6.100264435E0,1.328921494E1,1.566906042E1
1.472326825E1,-5.122946777E0,5.761518860E0,1.178140045E1,1.407981107E1
1.473320925E1,-4.405638428E0,5.488336945E0,9.780062256E0,1.204911242E1
1.474315025E1,-3.792812805E0,5.119953003E0,8.033344574E0,1.025348588E1
1.475309225E1,-3.199446716E0,4.761298828E0,6.779551849E0,8.880807908E0
1.476303325E1,-2.741997986E0,4.431684265E0,6.026168518E0,7.966999773E0
1.477297425E1,-2.287243652E0,4.062551880E0,5.294639740E0,7.054716244E0
1.478291625E1,-1.826352081E0,3.556304626E0,4.805756378E0,6.251252585E0
1.479285725E1,-1.226699066E0,3.159629517E0,4.644541626E0,5.749766621E0
1.480279825E1,-7.592211914E-1,2.775079193E0,4.241429901E0,5.125154530E0
1.481274025E1,-2.345622253E-1,2.361189880E0,4.062252502E0,4.704480044E0
1.482268125E1,1.212478638E-2,1.924248505E0,3.727249146E0,4.194671085E0
1.483262225E1,1.125659180E-1,1.699266357E0,3.477718048E0,3.872299067E0
1.484256425E1,1.884580994E-1,1.482367401E0,3.551215210E0,3.852798857E0
1.485250525E1,3.073109436E-1,1.176403656E0,3.537743225E0,3.740854542E0
1.486244625E1,2.085163879E-1,8.644523621E-1,3.586691437E0,3.695282456E0
1.487238825E1,-5.059478760E-2,7.152127075E-1,3.632645874E0,3.702729412E0
1.488232925E1,-5.011578369E-1,7.575746155E-1,3.574267273E0,3.687880830E0
1.489227025E1,-9.701325989E-1,8.789721680E-1,3.333118744E0,3.580981694E0
1.490221225E1,-1.472937012E0,1.171463928E0,2.913241882E0,3.468263173E0
1.491215325E1,-1.848206635E0,1.566342773E0,2.664159851E0,3.600978361E0
1.492209338E1,-2.179467773E0,2.042203217E0,2.872227173E0,4.143713635E0
1.493203537E1,-2.508633270E0,2.738106079E0,3.358266449E0,5.006837258E0
1.494197637E1,-2.884202271E0,3.490142212E0,4.260590057E0,6.217100854E0
1.495191737E1,-3.235821075E0,4.250710602E0,5.876629486E0,7.941904858E0
1.496185937E1,-3.600762177E0,5.007087708E0,7.883356476E0,1.000918203E1
1.497180037E1,-4.188589783E0,6.015690308E0,1.009261230E1,1.247371787E1
1.498174137E1,-4.863236847E0,6.515051880E0,1.264076340E1,1.502950009E1
1.499168338E1,-5.428461456E0,6.571933594E0,1.502006561E1,1.727023092E1
1.500162438E1,-6.405330048E0,6.255641327E0,1.729428635E1,1.947443559E1
1.501156538E1,-7.744595032E0,5.337750092E0,1.923485092E1,2.141144129E1
1.502150737E1,-8.422834625E0,4.526736603E0,2.044388672E1,2.256962542E1
1.503144837E1,-8.141120453E0,4.274511108E0,2.029509613E1,2.228093836E1
1.504138937E1,-7.722890167E0,4.298610992E0,1.897184784E1,2.092969420E1
1.505133137E1,-7.177424469E0,4.627028046E0,1.744307693E1,1.942127039E1
1.506127237E1,-6.512207794E0,5.062622223E0,1.603091354E1,1.802856575E1
1.507121337E1,-5.842949524E0,5.208568726E0,1.498324219E1,1.690463823E1
1.508115538E1,-5.210364990E0,5.106481018E0,1.422297318E1,1.598489968E1
1.509109638E1,-4.511019287E0,4.839586029E0,1.344788498E1,1.498721116E1
1.510103738E1,-3.873794403E0,4.584666138E0,1.266351608E1,1.401392473E1
1.511097937E1,-3.382815399E0,4.485422516E0,1.171433990E1,1.299185185E1
1.512092037E1,-3.133134613E0,4.433630219E0,1.081022003E1,1.209687838E1
1.513086138E1,-3.014431458E0,4.297413483E0,9.871372375E0,1.118027514E1
1.514080337E1,-2.916385345E0,4.189487915E0,8.919352112E0,1.027676771E1
1.515074437E1,-2.730172577E0,3.981121216E0,8.086783447E0,9.418027127E0
1.516068537E1,-2.556982727E0,3.657943268E0,7.248376923E0,8.512207565E0
1.517062738E1,-2.425406342E0,3.211272125E0,6.334527283E0,7.504738535E0
1.518056838E1,-2.192790070E0,2.865191803E0,5.707032166E0,6.751878886E0
1.519050938E1,-2.024839325E0,2.340383148E0,5.025200043E0,5.901694930E0
1.520045137E1,-1.797462158E0,1.913919983E0,4.461023254E0,5.176358603E0
1.521039238E1,-1.566043396E0,1.484013977E0,3.916904755E0,4.471792958E0
1.522033338E1,-1.361269226E0,1.121318207E0,3.500919800E0,3.920057126E0
1.523027537E1,-1.158890076E0,8.205935669E-1,3.082240448E0,3.393612557E0
1.524021637E1,-9.095086670E-1,5.059478760E-1,2.495161285E0,2.703519763E0
1.525015737E1,-6.307882690E-1,3.791615295E-1,1.985770569E0,2.117768179E0
1.526009938E1,-4.984634399E-1,2.585124207E-1,1.466350708E0,1.570184343E0
1.527004038E1,-3.826043701E-1,2.177970886E-1,1.022673340E0,1.113410273E0
1.527998138E1,-4.412823486E-1,1.778302002E-1,4.834945679E-1,6.783219652E-1
1.528992338E1,-3.266207886E-1,3.912863159E-1,1.559756470E-1,5.330239422E-1
1.529986438E1,-4.001179504E-1,5.800437927E-1,-1.889071655E-1,7.295417006E-1
1.530980538E1,-5.569917297E-1,7.247927856E-1,-4.736151123E-1,1.029502620E0
1.531974737E1,-7.512876892E-1,1.029559021E0,-4.352947998E-1,1.346813474E0
1.532968837E1,-1.124311981E0,1.408570862E0,-3.098556519E-2,1.802528615E0
1.533962937E1,-1.808239746E0,1.788780212E0,6.176156616E-1,2.617425211E0
1.534957138E1,-2.396217041E0,2.176923065E0,1.120120697E0,3.425714599E0
1.535951238E1,-2.797083435E0,2.577041016E0,1.906285858E0,4.254261618E0
1.536945337E1,-3.049608307E0,3.246598663E0,3.220103760E0,5.496324402E0
1.537939538E1,-3.418591003E0,3.856879578E0,5.083129578E0,7.238818331E0
1.538933638E1,-3.891008606E0,4.314328308E0,7.822133789E0,9.743672497E0
1.539927738E1,-4.284091187E0,4.258943481E0,1.138218063E1,1.288588658E1
1.540921937E1,-5.260510712E0,3.636986847E0,1.530836609E1,1.659056113E1
1.541916037E1,-6.312972107E0,3.096460876E0,1.930535431E1,2.054600671E1
1.542910137E1,-6.532415771E0,2.959346008E0,2.194900681E1,2.309088747E1
1.543904338E1,-6.572382660E0,3.208577728E0,2.309786774E1,2.422813816E1
1.544898438E1,-6.652466125E0,3.888314209E0,2.280777100E1,2.407423334E1
1.545892537E1,-6.960675201E0,4.670886841E0,2.159813644E1,2.316781563E1
1.546886738E1,-7.501201172E0,5.268144836E0,2.032069290E1,2.229241864E1
1.547880838E1,-7.958799591E0,5.747897186E0,1.933828583E1,2.168755661E1
1.548874938E1,-8.445737000E0,6.141129456E0,1.838940903E1,2.114744213E1
1.549869137E1,-8.989256744E0,6.482569427E0,1.737706421E1,2.061050227E1
1.550863237E1,-9.311237183E0,6.760840759E0,1.636022873E1,2.000162968E1
1.551857337E1,-9.281000061E0,6.900200958E0,1.524340118E1,1.913402767E1
1.552851437E1,-8.847950592E0,6.712640991E0,1.410412033E1,1.795193552E1
1.553845637E1,-8.084987183E0,6.211333466E0,1.296708481E1,1.649524082E1
1.554839737E1,-7.215295715E0,5.653892670E0,1.170805298E1,1.486961664E1
1.555833938E1,-6.217919769E0,5.197342072E0,1.032462982E1,1.312527607E1
1.556828038E1,-5.203628998E0,4.756059723E0,8.773854675E0,1.125514925E1
1.557822138E1,-4.190386047E0,4.314477997E0,7.383396149E0,9.523055933E0
1.558816238E1,-3.213517456E0,3.913761292E0,6.034251709E0,7.877589452E0
1.559810437E1,-2.390828247E0,3.574416962E0,4.763394470E0,6.417354845E0
1.560804537E1,-1.549128571E0,3.274590454E0,3.725752258E0,5.196534601E0
1.561798638E1,-7.881111145E-1,2.891836395E0,2.825374603E0,4.119050681E0
1.562792837E1,-1.778302002E-1,2.462529144E0,2.133962402E0,3.263352402E0
1.563786937E1,2.369572449E-1,2.183958435E0,1.668729858E0,2.758710301E0
1.564781037E1,4.679269409E-1,2.063309326E0,1.301842804E0,2.484148885E0
1.565775238E1,5.986051941E-1,2.002984772E0,8.381071472E-1,2.252265474E0
1.566769338E1,6.746470642E-1,2.050286407E0,2.960842896E-1,2.178643826E0
1.567763438E1,6.478527832E-1,2.216291199E0,-1.616638184E-1,2.314691145E0
1.568757637E1,3.954776001E-1,2.470462646E0,-5.718109131E-1,2.566428635E0
1.569751737E1,1.272354126E-1,2.799478455E0,-8.038284302E-1,2.915374524E0
1.570745838E1,-2.748284912E-1,3.074606323E0,-7.894583130E-1,3.186217063E0
1.571740037E1,-7.408094788E-1,3.217858429E0,-3.454815674E-1,3.320055582E0
1.572734137E1,-9.695338440E-1,3.319946136E0,4.710704041E-1,3.490550895E0
1.573728237E1,-1.023870850E0,3.234922943E0,1.512604523E0,3.714971118E0
1.574722438E1,-9.487271118E-1,3.033591614E0,2.601889343E0,4.107625758E0
1.575716538E1,-1.077459412E0,3.030148773E0,3.620221710E0,4.842388419E0
1.576710638E1,-1.291214905E0,3.336711273E0,4.743934937E0,5.941868118E0
1.577704837E1,-1.569186859E0,4.073778534E0,5.934259644E0,7.367052087E0
1.578698938E1,-2.178719330E0,4.997058563E0,7.431895294E0,9.216858460E0
1.579693038E1,-2.846031647E0,5.722001038E0,9.518855438E0,1.146515595E1
1.580687237E1,-3.279979248E0,5.860762482E0,1.221220459E1,1.393717122E1
1.581681337E1,-3.487148438E0,5.170248413E0,1.530477356E1,1.652657758E1
1.582675437E1,-3.523073730E0,4.096830597E0,1.851739288E1,1.928963215E1
1.583669638E1,-3.747008057E0,3.031346283E0,2.131806885E1,2.185610187E1
1.584663738E1,-4.416266327E0,2.067350922E0,2.272184967E1,2.323918674E1
1.585657838E1,-5.094056854E0,1.384021912E0,2.283276901E1,2.343502235E1
1.586652038E1,-5.278323669E0,1.442400513E0,2.205319016E1,2.272189288E1
1.587646138E1,-5.341791687E0,1.816772003E0,2.093396759E1,2.168101469E1
1.588640238E1,-5.391638031E0,1.969005432E0,1.952300171E1,2.034930807E1
1.589634437E1,-5.233267365E0,2.061513062E0,1.782642975E1,1.869273979E1
1.590628537E1,-5.003944244E0,2.291434937E0,1.616159180E1,1.707299568E1
1.591622637E1,-4.816084900E0,2.497705994E0,1.472398132E1,1.569168044E1
1.592616908E1,-4.509672089E0,2.469265137E0,1.360296249E1,1.454218007E1
1.593611008E1,-3.892655182E0,2.412383423E0,1.291948380E1,1.370713025E1
1.594605108E1,-3.175496521E0,2.404150543E0,1.226369751E1,1.289426208E1
1.595599308E1,-2.636168060E0,2.308948517E0,1.146196472E1,1.198571068E1
1.596593408E1,-2.222877502E0,2.234104156E0,1.075229050E1,1.120464889E1
1.597587508E1,-1.899699554E0,2.056423645E0,1.016581009E1,1.054426059E1
1.598581708E1,-1.768272858E0,1.900298309E0,9.594597931E0,9.939528762E0
1.599575808E1,-1.523831177E0,1.814826050E0,8.996890869E0,9.303746576E0
1.600569908E1,-1.386566620E0,1.710043945E0,8.156089325E0,8.447994458E0
1.601564108E1,-1.400038605E0,1.602417755E0,7.171885986E0,7.480895625E0
1.602558208E1,-1.379980316E0,1.478176117E0,6.355783081E0,6.669732294E0
1.603552308E1,-1.438658295E0,1.419198761E0,5.600304108E0,5.953760905E0
1.604546508E1,-1.470691681E0,1.304537201E0,4.747228088E0,5.138183128E0
1.605540608E1,-1.352587280E0,1.249601440E0,4.071533203E0,4.468599192E0
1.606534708E1,-1.188378754E0,1.061891785E0,3.328628082E0,3.690477359E0
1.607528908E1,-1.067130890E0,9.258247375E-1,2.822530518E0,3.156358393E0
1.608523008E1,-8.824150085E-1,8.378077698E-1,2.291584625E0,2.594597888E0
1.609517108E1,-6.306385803E-1,8.809181213E-1,1.830992432E0,2.127499716E0
1.610511308E1,-5.237608337E-1,9.735754395E-1,1.381477203E0,1.769365369E0
1.611505408E1,-3.993695068E-1,1.125659180E0,8.696914673E-1,1.477487002E0
1.612499508E1,-3.047662354E-1,1.389111328E0,4.116439819E-1,1.480528118E0
1.613493708E1,-2.971321106E-1,1.789378967E0,1.758842468E-1,1.822388501E0
1.614487808E1,-4.210743713E-1,2.181563416E0,-4.281097412E-2,2.222241063E0
1.615481908E1,-6.007008362E-1,2.512525177E0,-1.023870850E-1,2.585364070E0
1.616476108E1,-8.626560974E-1,2.859054565E0,1.065783691E-1,2.988264965E0
1.617470208E1,-1.190773773E0,3.148103485E0,5.939648438E-1,3.417790510E0
1.618464308E1,-1.589095459E0,3.275937653E0,1.560355225E0,3.961275086E0
1.619458508E1,-1.848056946E0,3.385210419E0,3.003055115E0,4.888077749E0
1.620452608E1,-1.923500061E0,3.510649567E0,4.802014160E0,6.251707995E0
1.621446708E1,-2.145338745E0,3.710484009E0,6.627168732E0,7.892371970E0
1.622440908E1,-2.500250702E0,3.846401367E0,8.480315094E0,9.641670039E0
1.623435008E1,-3.078947296E0,3.941603394E0,1.072669373E1,1.183545994E1
1.624429108E1,-3.461102600E0,3.979324951E0,1.371957001E1,1.469832846E1
1.625423308E1,-3.989952850E0,4.014052734E0,1.682620972E1,1.775256817E1
1.626417408E1,-4.374802551E0,4.469854889E0,1.868459518E1,1.970361889E1
1.627411508E1,-4.597090302E0,5.158722382E0,1.899130737E1,2.020929023E1
1.628405708E1,-4.614753571E0,6.118077393E0,1.820663910E1,1.975369659E1
1.629399808E1,-4.602479095E0,7.307054901E0,1.703218140E1,1.909636270E1
1.630393908E1,-4.751119995E0,8.349038086E0,1.607956238E1,1.873050732E1
1.631388108E1,-4.944966888E0,8.725505219E0,1.585622681E1,1.876185138E1
1.632382208E1,-5.142556000E0,8.581953735E0,1.641845764E1,1.922658481E1
1.633376308E1,-5.112767944E0,8.189170532E0,1.719519241E1,1.971997850E1
1.634370508E1,-5.006788330E0,7.687863007E0,1.770652908E1,1.994222503E1
1.635364608E1,-4.874762878E0,7.381599884E0,1.771341476E1,1.979940384E1
1.636358708E1,-4.575684814E0,7.526797943E0,1.693233902E1,1.908647907E1
1.637352908E1,-4.086502075E0,7.863298187E0,1.543649963E1,1.779933927E1
1.638347008E1,-3.571123810E0,8.200546875E0,1.387958725E1,1.651196041E1
1.639341108E1,-3.207080841E0,8.195457458E0,1.277383667E1,1.551198871E1
1.640335308E1,-3.194357300E0,7.788603516E0,1.215023346E1,1.478155731E1
1.641329408E1,-3.347189484E0,7.103478241E0,1.184337158E1,1.421015591E1
1.642323508E1,-3.368145905E0,6.461463318E0,1.140313705E1,1.353242217E1
1.643317708E1,-3.263363800E0,5.883066101E0,1.072774155E1,1.266271885E1
1.644311808E1,-3.053949280E0,5.349575500E0,9.837243347E0,1.160671878E1
1.645305908E1,-2.677482147E0,4.953199768E0,8.718619537E0,1.037870056E1
1.646300108E1,-2.141297150E0,4.522994385E0,7.416028290E0,8.946513694E0
1.647294208E1,-1.443148956E0,4.125121765E0,6.139482880E0,7.536083765E0
1.648288308E1,-7.635621643E-1,3.585044861E0,4.775369568E0,6.019944214E0
1.649282508E1,-1.342707825E-1,2.991828461E0,3.642675018E0,4.715734033E0
1.650276608E1,3.118016052E-1,2.418221283E0,2.854563904E0,3.754137650E0
1.651270708E1,6.216572571E-1,1.777703247E0,2.462229767E0,3.099880966E0
1.652264908E1,7.457492065E-1,1.150657196E0,2.432890778E0,2.792688919E0
1.653259008E1,8.660989380E-1,5.695655823E-1,2.687660980E0,2.880634282E0
1.654253108E1,1.028511200E0,-3.143463135E-2,2.914589081E0,3.090898402E0
1.655247308E1,1.213526459E0,-5.412744141E-1,3.224594421E0,3.487640125E0
1.656241408E1,1.407672729E0,-8.970845032E-1,3.261417847E0,3.663761658E0
1.657235508E1,1.323248291E0,-1.031804352E0,2.805166626E0,3.268725449E0
1.658229608E1,1.065484314E0,-7.939489746E-1,2.140548706E0,2.519436556E0
1.659223808E1,7.599696350E-1,-4.149371338E-1,1.356179810E0,1.609021550E0
1.660217908E1,3.203338623E-1,2.409988403E-2,7.207511902E-1,7.890987682E-1
1.661212008E1,-5.643264771E-2,5.459147644E-1,4.540058899E-1,7.122702589E-1
1.662206208E1,-4.257147217E-1,9.678872681E-1,5.459147644E-1,1.189983915E0
1.663200308E1,-6.807843018E-1,1.252894592E0,1.294208679E0,1.925665659E0
1.664194408E1,-7.535330200E-1,1.446142731E0,2.559228058E0,3.034598666E0
1.665188608E1,-7.750881958E-1,1.570384369E0,3.913910980E0,4.287839542E0
