"Time (s)","Acceleration x (m/s^2)","Acceleration y (m/s^2)","Acceleration z (m/s^2)","Absolute acceleration (m/s^2)"
4.159999080E-4,4.643344116E-1,4.448150024E0,8.689430237E0,9.772811414E0
1.035799971E-2,6.093827820E-1,4.440216522E0,8.748856659E0,9.830023549E0
2.029999997E-2,7.162605286E-1,4.447700958E0,8.632249146E0,9.737083663E0
3.024199978E-2,7.170089722E-1,4.459975433E0,8.477920074E0,9.606279796E0
4.018399958E-2,7.634124756E-1,4.389322357E0,8.652906189E0,9.732509177E0
5.012599984E-2,8.713380432E-1,4.367318115E0,9.029073944E0,1.006761510E1
6.006799964E-2,9.813592529E-1,4.412524109E0,9.295220490E0,1.033608044E1
7.000899967E-2,1.008303223E0,4.546196136E0,9.380093994E0,1.047237977E1
7.995099993E-2,9.830058289E-1,4.649331665E0,9.229656830E0,1.038119216E1
8.989299973E-2,8.812174988E-1,4.554429016E0,8.846304016E0,9.988816881E0
9.983500000E-2,5.099894714E-1,4.345014496E0,8.128097534E0,9.230666810E0
1.097769998E-1,7.274871826E-2,4.131708069E0,7.793692932E0,8.821448490E0
1.197189996E-1,1.496887207E-3,3.980971527E0,8.105644226E0,9.030481984E0
1.296609999E-1,1.721420288E-2,3.945944366E0,8.305029602E0,9.194796896E0
1.396029997E-1,1.197509766E-1,4.282444611E0,8.168064423E0,9.223391380E0
1.495439997E-1,1.993853760E-1,4.170776825E0,8.277486877E0,9.271025987E0
1.594860000E-1,3.263214111E-1,4.013004913E0,8.604706421E0,9.500087720E0
1.694279998E-1,5.348377991E-1,4.196672974E0,8.580606537E0,9.566865948E0
1.793699996E-1,5.924679565E-1,4.438120880E0,8.500223694E0,9.607379355E0
1.893119998E-1,5.813909912E-1,4.608316956E0,8.628207550E0,9.799008428E0
1.992539996E-1,5.828878784E-1,4.628375244E0,8.741970978E0,9.908767444E0
2.091959999E-1,4.896318054E-1,4.587510223E0,8.934470673E0,1.005533468E1
2.191379997E-1,4.317022705E-1,4.461023254E0,9.059011688E0,1.010706625E1
2.290789997E-1,3.218307495E-1,4.314477997E0,8.833730164E0,9.836314555E0
2.390210000E-1,-1.815724182E-1,4.098626862E0,8.654253387E0,9.577463776E0
2.489629998E-1,-5.174739075E-1,3.798351288E0,8.841513977E0,9.636784794E0
2.589049996E-1,-3.956272888E-1,3.676953735E0,9.160500641E0,9.878829977E0
2.688469999E-1,5.508544922E-2,3.770209808E0,9.358089752E0,1.008917044E1
2.787889997E-1,2.529739380E-1,4.035907288E0,9.437873840E0,1.026771669E1
2.887309999E-1,2.971321106E-1,4.187541962E0,9.307045898E0,1.021003911E1
2.986729997E-1,1.456471252E-1,4.162693634E0,9.239536285E0,1.013500183E1
3.086139997E-1,-1.782792664E-1,3.984264679E0,9.314081268E0,1.013204118E1
3.185559995E-1,-3.041674805E-1,3.660338287E0,9.479337616E0,1.016604328E1
3.284979998E-1,-3.427871704E-1,3.450025635E0,9.597442017E0,1.020446340E1
3.384399996E-1,-3.152444458E-1,3.416645050E0,9.414223022E0,1.002000188E1
3.483819999E-1,-2.369572449E-1,3.497626648E0,8.957223358E0,9.618804042E0
3.583239997E-1,-1.930984497E-1,3.603606262E0,8.120164032E0,8.885962470E0
3.682659999E-1,-3.345542908E-1,3.685336304E0,7.355853424E0,8.234209728E0
3.782079997E-1,-4.375401306E-1,3.827989655E0,7.176077271E0,8.145000378E0
3.881489998E-1,-2.125579834E-1,4.211342468E0,7.402556305E0,8.519297279E0
3.980909996E-1,3.495231628E-1,4.670886841E0,7.680528259E0,8.996102749E0
4.080329998E-1,6.427633667E-1,4.953948212E0,7.849676514E0,9.304416639E0
4.179749996E-1,3.480262756E-1,4.828808441E0,7.965385895E0,9.321259877E0
4.279169999E-1,-1.365161133E-1,4.485721893E0,8.480015717E0,9.594321451E0
4.378589997E-1,-4.387376404E-1,4.252806244E0,9.225166168E0,1.016772061E1
4.478010000E-1,-5.475613403E-1,4.292473755E0,1.004022125E1,1.093303239E1
4.577429998E-1,-4.912783813E-1,4.406985626E0,1.080258591E1,1.167727447E1
4.676839998E-1,-3.842509460E-1,4.316274261E0,1.122680374E1,1.203407639E1
4.776259996E-1,-3.294648743E-1,4.149670715E0,1.128563141E1,1.202887320E1
4.875679999E-1,-2.216889954E-1,4.055815887E0,1.111648315E1,1.183532789E1
4.975099997E-1,-7.768844604E-2,4.080364838E0,1.072893906E1,1.147891746E1
5.074519999E-1,5.089416504E-3,4.185596008E0,1.024050476E1,1.106287384E1
5.173939997E-1,1.157093811E-1,4.389921112E0,9.773625641E0,1.071487537E1
5.273360000E-1,2.233355713E-1,4.519401855E0,9.314230957E0,1.035518084E1
5.372779998E-1,3.394940186E-1,4.536616058E0,8.799301758E0,9.905748476E0
5.472199996E-1,5.117857361E-1,4.572541351E0,8.281977539E0,9.474239337E0
5.571609996E-1,6.146218872E-1,4.635709991E0,7.928861847E0,9.205129949E0
5.671029999E-1,6.014492798E-1,4.752317505E0,7.759863281E0,9.119305952E0
5.770449997E-1,4.963677979E-1,4.880750427E0,7.663613434E0,9.099399793E0
5.869870000E-1,3.399430847E-1,4.921914825E0,7.584577789E0,9.048017854E0
5.969289998E-1,2.097138977E-1,4.813240814E0,7.653434601E0,9.043579393E0
6.068709996E-1,3.457809448E-2,4.788242798E0,7.742649078E0,9.103684940E0
6.168129998E-1,4.999603271E-2,4.791386261E0,7.889942780E0,9.230984724E0
6.267549996E-1,1.941462708E-1,4.748126221E0,8.227041779E0,9.500874265E0
6.366969999E-1,2.665956116E-1,4.696782990E0,8.567134552E0,9.773772972E0
6.466379999E-1,3.270698547E-1,4.640799408E0,8.730744324E0,9.892921221E0
6.565799997E-1,3.294648743E-1,4.592899017E0,8.769513702E0,9.904930038E0
6.665220000E-1,2.757266235E-1,4.582720184E0,8.781638489E0,9.909315012E0
6.764639998E-1,2.805166626E-1,4.612508240E0,8.718619537E0,9.867535077E0
6.864059996E-1,3.754193115E-1,4.564757538E0,8.704548798E0,9.836011428E0
6.963479999E-1,4.664300537E-1,4.482728119E0,8.835526428E0,9.918615611E0
7.062899997E-1,4.426295471E-1,4.444707184E0,8.842412109E0,9.906543029E0
7.162319999E-1,3.749702454E-1,4.399052124E0,8.747659149E0,9.798663320E0
7.261729999E-1,2.977308655E-1,4.326004028E0,8.699010315E0,9.719862910E0
7.361149997E-1,3.224295044E-1,4.332141266E0,8.737480316E0,9.757815893E0
7.460569995E-1,4.328997803E-1,4.351900177E0,8.602311401E0,9.650191647E0
7.559989998E-1,8.189469910E-1,4.425696716E0,7.937394104E0,9.124674830E0
7.659409996E-1,9.066645813E-1,4.291126556E0,9.085805969E0,1.008898795E1
7.758829999E-1,8.970845032E-1,4.373006287E0,9.538165283E0,1.053112252E1
7.858249997E-1,1.317859497E0,4.954996033E0,9.692194977E0,1.096482480E1
7.957669999E-1,1.213077393E0,5.058281250E0,9.492061157E0,1.082390830E1
8.057089997E-1,7.044351196E-1,4.537364502E0,8.753197632E0,9.884451135E0
8.156499998E-1,5.526507568E-1,4.143084412E0,8.370593262E0,9.356142520E0
8.255919996E-1,8.238867188E-1,4.074077911E0,8.331374817E0,9.310677016E0
8.355339998E-1,1.188678131E0,4.072880402E0,8.511749725E0,9.510583255E0
8.454759996E-1,1.417851562E0,4.039499817E0,8.716673584E0,9.711244009E0
8.554179999E-1,1.548679504E0,4.001029816E0,8.800499268E0,9.790578898E0
8.653599997E-1,1.616638184E0,4.014052734E0,8.797655182E0,9.804329404E0
8.753020000E-1,1.498384094E0,3.996239777E0,8.865913239E0,9.839690280E0
8.852439998E-1,1.197509766E0,3.917353821E0,9.145531769E0,1.002100005E1
8.951859996E-1,9.032217407E-1,3.777843933E0,9.637109528E0,1.039046651E1
9.051269996E-1,6.045927429E-1,3.622467041E0,1.018691620E1,1.082871467E1
9.150689999E-1,3.484753418E-1,3.459456024E0,1.057131683E1,1.112843253E1
9.250111249E-1,1.383123779E-1,3.296295319E0,1.064780777E1,1.114721954E1
9.349531247E-1,-6.885681152E-3,3.193159790E0,1.049991531E1,1.097472271E1
9.448951250E-1,4.026626587E-2,3.194956055E0,1.008931915E1,1.058318130E1
9.548371248E-1,1.484912109E-1,3.320844269E0,9.394015045E0,9.964816856E0
9.647791246E-1,3.323089600E-1,3.463198242E0,8.744066620E0,9.410784896E0
9.747211249E-1,6.475534058E-1,3.814966736E0,8.310119019E0,9.166862861E0
9.846631247E-1,9.337582397E-1,3.993695068E0,7.879464569E0,8.882987484E0
9.946041247E-1,1.128952332E0,4.096980286E0,7.617958374E0,8.723134220E0
1.004546125E0,1.296903076E0,4.168232117E0,7.602390747E0,8.766553578E0
1.014488125E0,1.345701599E0,4.162094879E0,7.782166901E0,8.927265441E0
1.024430125E0,1.280137939E0,4.194876709E0,8.063282318E0,9.178903284E0
1.034372125E0,1.154399414E0,4.189487915E0,8.285270691E0,9.355755310E0
1.044314125E0,9.900411987E-1,4.120182037E0,8.337362366E0,9.352416416E0
1.054256125E0,7.673043823E-1,4.098177795E0,8.434360657E0,9.408626730E0
1.064198125E0,6.557862854E-1,4.144730988E0,8.446485443E0,9.431435042E0
1.074140125E0,5.864804077E-1,4.165687408E0,8.498427429E0,9.482625144E0
1.084081125E0,4.662803650E-1,4.207600250E0,8.666228485E0,9.644938227E0
1.094023125E0,3.858975220E-1,4.252357178E0,8.911867676E0,9.881945352E0
1.103965125E0,3.167413330E-1,4.353097687E0,9.052275696E0,1.004955122E1
1.113907125E0,3.073109436E-1,4.483177185E0,9.001531219E0,1.006085891E1
1.123849125E0,4.239184570E-1,4.607269135E0,8.886719971E0,1.001900332E1
1.133791125E0,4.770579529E-1,4.646637268E0,8.700956268E0,9.875498072E0
1.143733125E0,4.424798584E-1,4.658612366E0,8.513845367E0,9.715143876E0
1.153675125E0,5.758525085E-1,4.641547852E0,8.412506104E0,9.625270464E0
1.163617125E0,6.209088135E-1,4.615502014E0,8.378227386E0,9.585566271E0
1.173558125E0,5.689668274E-1,4.507875824E0,8.339308319E0,9.496774765E0
1.183500125E0,7.478448486E-1,4.535568237E0,8.457412720E0,9.625927543E0
1.193442125E0,1.220861206E0,4.920118561E0,8.706494751E0,1.007477640E1
1.203384125E0,1.376836853E0,5.197042694E0,8.765172729E0,1.028266432E1
1.213326125E0,1.447489929E0,5.253924408E0,8.738079071E0,1.029820250E1
1.223268125E0,9.039701843E-1,4.672234039E0,8.494086456E0,9.736346221E0
1.233210125E0,2.577639771E-1,4.527335358E0,8.500972137E0,9.634818887E0
1.243152125E0,1.326242065E-1,4.783901825E0,8.754395142E0,9.977110812E0
1.253094125E0,4.520599365E-1,5.453160095E0,8.913514252E0,1.045906542E1
1.263035125E0,4.794529724E-1,5.442083130E0,8.887019348E0,1.043193447E1
1.272977125E0,2.706372070E-1,5.174439697E0,8.713829498E0,1.013799266E1
1.282919125E0,1.173559570E-1,5.005141754E0,8.616980896E0,9.965820396E0
1.292861125E0,-6.286926270E-3,4.899910583E0,8.532706146E0,9.839524248E0
1.302803125E0,2.383044434E-1,4.742288361E0,8.485404510E0,9.723588721E0
1.312745125E0,3.782633972E-1,4.612807617E0,9.040150909E0,1.015605267E1
1.322687125E0,-2.713856506E-1,4.542902985E0,9.432335358E0,1.047284909E1
1.332629125E0,-4.433779907E-1,4.366869049E0,9.472451935E0,1.043999401E1
1.342571125E0,-5.897735596E-1,4.343218231E0,9.249415741E0,1.023538319E1
1.352513125E0,-5.138813782E-1,4.386029205E0,9.062005463E0,1.008073754E1
1.362454125E0,-2.902464294E-1,4.520749054E0,8.995543671E0,1.007180326E1
1.372396125E0,-2.251318359E-1,4.596641235E0,8.995543671E0,1.010443472E1
1.382338125E0,-2.360591125E-1,4.552782440E0,9.085356903E0,1.016500182E1
1.392280125E0,-3.513194275E-1,4.414170685E0,9.087003479E0,1.010850931E1
1.402222125E0,-5.221142578E-1,4.394411774E0,8.787925415E0,9.839262738E0
1.412164125E0,-8.619076538E-1,4.556225281E0,8.385262756E0,9.581999014E0
1.422106125E0,-1.086141357E0,4.699028320E0,7.994425507E0,9.336563039E0
1.432048125E0,-1.098415833E0,4.778363342E0,7.657027130E0,9.092268036E0
1.441990125E0,-9.996212769E-1,4.582420807E0,7.518415375E0,8.861399037E0
1.451931125E0,-9.824070740E-1,4.695735168E0,8.014783173E0,9.340867290E0
1.461873125E0,-1.029109955E0,4.965474243E0,8.762777710E0,1.012429133E1
1.471815125E0,-7.333250427E-1,4.934937744E0,9.538314972E0,1.076433132E1
1.481757125E0,-8.539741516E-1,5.187312927E0,9.668693848E0,1.100550444E1
1.491699125E0,-8.684939575E-1,5.386398926E0,9.421408081E0,1.088717160E1
1.501641125E0,-1.510957947E0,4.297862549E0,9.536069641E0,1.056840767E1
1.511583125E0,-1.756447449E0,3.397933960E0,9.905651093E0,1.061852091E1
1.521525125E0,-1.682052155E0,3.045716400E0,1.062475571E1,1.117994283E1
1.531467125E0,-1.496288452E0,2.997067566E0,1.097802109E1,1.147772800E1
1.541408125E0,-1.456171875E0,2.918780365E0,1.061278061E1,1.110273964E1
1.551350125E0,-1.306632843E0,3.038830719E0,9.879006500E0,1.041808768E1
1.561292125E0,-1.235680389E0,3.126398621E0,9.055419159E0,9.659290373E0
1.571234125E0,-1.361718292E0,3.290158081E0,8.181087341E0,8.922421588E0
1.581176125E0,-1.495540009E0,3.379073181E0,7.711813202E0,8.551423176E0
1.591118125E0,-1.530567169E0,3.563339996E0,7.769443359E0,8.683563664E0
1.601060125E0,-1.276844788E0,3.868255920E0,7.901468811E0,8.889710111E0
1.611002125E0,-1.025218048E0,3.827839966E0,7.731272736E0,8.687692960E0
1.620944125E0,-9.665400696E-1,3.715423737E0,7.630083160E0,8.541471904E0
1.630886125E0,-1.225651245E0,3.802991638E0,7.723189545E0,8.695551916E0
1.640827125E0,-1.428030396E0,3.864513702E0,7.891439667E0,8.902165859E0
1.650769125E0,-1.417552185E0,3.770060120E0,8.253386993E0,9.183746750E0
1.660711125E0,-1.255139923E0,3.534749451E0,9.022038574E0,9.770722079E0
1.670653125E0,-1.205892334E0,3.390150146E0,9.800719299E0,1.044037323E1
1.680595125E0,-1.350791016E0,3.308719482E0,1.020951920E1,1.081695628E1
1.690537125E0,-1.457818451E0,3.261417847E0,1.042492126E1,1.102003014E1
1.700479125E0,-1.498833160E0,3.239413605E0,1.024798920E1,1.085180095E1
1.710421125E0,-1.519340515E0,3.210972748E0,9.852960663E0,1.047375651E1
1.720363125E0,-1.389410706E0,3.526067505E0,9.580976257E0,1.030333539E1
1.730305125E0,-1.286873932E0,3.707639923E0,9.292975159E0,1.008771657E1
1.740246125E0,-1.210832062E0,3.685186615E0,8.937165070E0,9.742670791E0
1.750188125E0,-1.102008362E0,3.813619537E0,8.690927124E0,9.554597358E0
1.760130125E0,-1.009650421E0,3.894002380E0,8.501570892E0,9.405283417E0
1.770072125E0,-8.536747742E-1,3.922293549E0,8.401279449E0,9.310995848E0
1.780014125E0,-7.478448486E-1,3.913910980E0,8.312663727E0,9.218370209E0
1.789956125E0,-7.396119690E-1,3.896247711E0,8.206384735E0,9.114412900E0
1.799898125E0,-7.509883118E-1,3.880081329E0,8.117170258E0,9.028148623E0
1.809840125E0,-7.372169495E-1,3.862418060E0,7.952512665E0,8.871539877E0
1.819782125E0,-7.779322815E-1,3.902983704E0,7.902965698E0,8.848464683E0
1.829724125E0,-8.625064087E-1,3.992048492E0,7.887847137E0,8.882482814E0
1.839665125E0,-9.580078125E-1,4.020189972E0,7.957901459E0,8.967045333E0
1.849607125E0,-1.110241241E0,3.943998413E0,8.158634033E0,9.129680629E0
1.859549125E0,-1.261277161E0,3.870501251E0,8.431217194E0,9.362532957E0
1.869491125E0,-1.356778564E0,3.798500977E0,8.678652649E0,9.570186495E0
1.879433125E0,-1.326691132E0,3.734284515E0,8.791218567E0,9.643158927E0
1.889375125E0,-1.181044006E0,3.699407043E0,8.737630005E0,9.561728689E0
1.899317125E0,-1.010398865E0,3.608096924E0,8.605754242E0,9.386068152E0
1.909259125E0,-8.437953186E-1,3.429368591E0,8.658294983E0,9.350862607E0
1.919201375E0,-7.116201782E-1,3.318000183E0,8.853040009E0,9.481131045E0
1.929143375E0,-6.210585022E-1,3.185974731E0,9.088350677E0,9.650609654E0
1.939084375E0,-6.237528992E-1,3.034639435E0,9.452243958E0,9.947010607E0
1.949026375E0,-5.855822754E-1,3.013832703E0,9.852212219E0,1.031950482E1
1.958968375E0,-2.887495422E-1,3.166515198E0,1.009635452E1,1.058520522E1
1.968910375E0,1.321751404E-1,3.479514313E0,9.974657593E0,1.056495548E1
1.978852375E0,6.307882690E-1,3.925886078E0,9.599986725E0,1.039087198E1
1.988794375E0,9.922865295E-1,4.282594299E0,9.109007721E0,1.011431007E1
1.998736375E0,1.062041473E0,4.413871307E0,8.668773193E0,9.785592506E0
2.008678375E0,8.351133728E-1,4.285737762E0,8.408314819E0,9.474424553E0
2.018620375E0,2.865042114E-1,4.091292114E0,8.545729065E0,9.478936706E0
2.028562375E0,-4.122427368E-1,3.857029266E0,9.138047333E0,9.927261853E0
2.038504375E0,-9.394464111E-1,3.265609131E0,9.947264557E0,1.051165233E1
2.048445375E0,-1.115031281E0,2.627486115E0,1.089988358E1,1.126740609E1
2.058387375E0,-8.656498718E-1,2.245929565E0,1.156105865E1,1.180896382E1
2.068329375E0,-4.013154602E-1,2.054777069E0,1.160117523E1,1.178857199E1
2.078271375E0,6.436614990E-3,2.137554932E0,1.124955643E1,1.145083850E1
2.088213375E0,4.102967834E-1,2.438279572E0,1.054272629E1,1.082878702E1
2.098155375E0,5.322930908E-1,2.868335266E0,9.589358826E0,1.002329715E1
2.108097375E0,4.355941772E-1,3.272494812E0,8.666078796E0,9.273612365E0
2.118039375E0,2.046244812E-1,3.540138245E0,8.102500763E0,8.844488034E0
2.127981375E0,-1.321751404E-1,3.789369965E0,8.023614807E0,8.874412069E0
2.137923375E0,-3.727249146E-2,3.913162537E0,8.362809448E0,9.233136636E0
2.147864375E0,6.586303711E-3,3.844006348E0,8.807983704E0,9.610255205E0
2.157806375E0,1.327738953E-1,3.628903656E0,9.222322083E0,9.911498133E0
2.167748375E0,2.519261169E-1,3.456462250E0,9.517957306E0,1.012926993E1
2.177690375E0,3.474275208E-1,3.262016602E0,9.574090576E0,1.012050733E1
2.187632375E0,3.168910217E-1,3.068319397E0,9.415719910E0,9.908117140E0
2.197574375E0,2.859054565E-2,2.911146240E0,9.290729828E0,9.736182547E0
2.207516375E0,-3.766168213E-1,2.842289429E0,9.131910095E0,9.571427867E0
2.217458375E0,-7.075785828E-1,2.929108887E0,8.983119507E0,9.475061076E0
2.227400375E0,-9.768685913E-1,2.892435150E0,8.865613861E0,9.376543205E0
2.237342375E0,-1.184337158E0,3.001258850E0,8.727900238E0,9.305184133E0
2.247283375E0,-1.237626343E0,3.477568359E0,8.695118408E0,9.446178317E0
2.257225375E0,-1.216370544E0,3.658841400E0,8.809630280E0,9.616457942E0
2.267167375E0,-1.081650696E0,3.647165680E0,8.903634796E0,9.682277537E0
2.277109375E0,-9.539662170E-1,3.653452606E0,8.811276855E0,9.586259297E0
2.287051375E0,-9.071136475E-1,3.754193115E0,8.547225952E0,9.379333270E0
2.296993375E0,-9.385482788E-1,3.775448914E0,8.245752869E0,9.117418919E0
2.306935375E0,-9.776170349E-1,3.662433929E0,8.036787415E0,8.885893838E0
2.316877375E0,-9.683363342E-1,3.731141052E0,7.934400330E0,8.821212921E0
2.326819375E0,-8.640032959E-1,3.744912415E0,7.919281769E0,8.802607251E0
2.336761375E0,-7.232958984E-1,3.706592102E0,8.017178192E0,8.862117587E0
2.346703375E0,-7.283853149E-1,3.504662018E0,8.099357300E0,8.855099643E0
2.356645375E0,-7.726931763E-1,3.266956329E0,8.131839752E0,8.797549440E0
2.366586375E0,-6.367758179E-1,3.494932251E0,8.356223145E0,9.080005513E0
2.376528375E0,-5.610333252E-1,3.809877319E0,8.655151520E0,9.473202806E0
2.386470375E0,-4.445755005E-1,4.009861450E0,8.778195648E0,9.660918955E0
2.396412375E0,-3.450325012E-1,4.094136200E0,8.748706970E0,9.665447341E0
2.406354375E0,-3.622467041E-1,4.074227600E0,8.669671326E0,9.586122997E0
2.416296375E0,-4.040098572E-1,4.056714020E0,8.708440704E0,9.615461097E0
2.426238375E0,-4.321513367E-1,4.021836548E0,8.933123474E0,9.806254076E0
2.436180375E0,-5.658233643E-1,3.898493042E0,9.039402466E0,9.860486855E0
2.446122375E0,-6.393205261E-1,3.780388641E0,9.099577332E0,9.874329174E0
2.456064375E0,-7.494914246E-1,3.782035217E0,9.218430176E0,9.992246128E0
2.466006375E0,-9.195378113E-1,3.837420044E0,9.361981659E0,1.015962809E1
2.475947375E0,-1.163081360E0,3.865411835E0,9.420210571E0,1.024863572E1
2.485889375E0,-1.427281952E0,3.862418060E0,9.460925903E0,1.031816486E1
2.495831375E0,-1.647474060E0,3.815565491E0,9.538464661E0,1.040456721E1
2.505773375E0,-1.714833984E0,3.761677551E0,9.595945129E0,1.044859017E1
2.515715375E0,-1.648072815E0,3.941304016E0,9.552236023E0,1.046399706E1
2.525657375E0,-1.399739227E0,4.339476013E0,9.384584656E0,1.043363557E1
2.535599375E0,-1.091530151E0,4.672234039E0,9.179361420E0,1.035769690E1
2.545541375E0,-9.205856323E-1,4.565805359E0,9.121731262E0,1.024207194E1
2.555483375E0,-8.758287048E-1,4.232747955E0,9.301208038E0,1.025649561E1
2.565425375E0,-8.590635681E-1,4.071982269E0,9.592651978E0,1.045648133E1
2.575366375E0,-9.117539978E-1,3.966451721E0,9.914482727E0,1.071732254E1
2.585308375E0,-1.032253418E0,3.553011475E0,1.022074585E1,1.086982444E1
2.595250375E0,-1.112336884E0,3.050356750E0,1.033181488E1,1.082997546E1
2.605192375E0,-9.857002258E-1,2.797831879E0,1.025622208E1,1.067658932E1
2.615134375E0,-8.301736450E-1,2.757565613E0,1.005489075E1,1.045916748E1
2.625076375E0,-6.301895142E-1,2.779420166E0,9.911039886E0,1.031266342E1
2.635018375E0,-3.927832031E-1,2.785856781E0,9.862540741E0,1.025597321E1
2.644960375E0,-1.769320679E-1,2.755469971E0,1.001911514E1,1.039262180E1
2.654902375E0,-9.999206543E-2,2.708168335E0,1.028211823E1,1.063325582E1
2.664844375E0,-1.492396545E-1,2.696941681E0,1.023167313E1,1.058219740E1
2.674786375E0,-3.501219177E-1,2.737058258E0,9.874515839E0,1.025281114E1
2.684728375E0,-7.206015015E-1,2.701731720E0,9.320817261E0,9.731200091E0
2.694669375E0,-9.472302246E-1,2.909349976E0,8.758436737E0,9.277487616E0
2.704611375E0,-9.894424438E-1,3.330124969E0,8.422086182E0,9.110448085E0
2.714553375E0,-1.139580231E0,3.400029602E0,8.238867188E0,8.985420242E0
2.724495375E0,-1.294358368E0,3.375330963E0,8.127349091E0,8.895056264E0
2.734437375E0,-1.467248840E0,3.499123535E0,8.108937378E0,8.952739808E0
2.744379375E0,-1.595382385E0,3.600911865E0,8.215066681E0,9.110385930E0
2.754321375E0,-1.755249939E0,3.578009491E0,8.267308044E0,9.177768605E0
2.764263375E0,-1.922452240E0,3.387455750E0,8.376281433E0,9.237573800E0
2.774205375E0,-2.046544189E0,3.196452942E0,8.618926849E0,9.417619368E0
2.784147375E0,-2.193987579E0,3.078348541E0,8.995843048E0,9.757817552E0
2.794089375E0,-2.240241394E0,2.958447876E0,9.333690491E0,1.004434535E1
2.804031375E0,-2.183060303E0,2.856360168E0,9.534123688E0,1.018940922E1
2.813972375E0,-1.985321503E0,2.786156158E0,9.655371552E0,1.024355248E1
2.823914375E0,-1.750160522E0,2.739602966E0,9.741592255E0,1.026971791E1
2.833856375E0,-1.497036896E0,2.801125031E0,9.763895874E0,1.026747698E1
2.843798375E0,-1.173858948E0,2.915337524E0,9.625433807E0,1.012551795E1
2.853740375E0,-9.219328308E-1,2.983146515E0,9.388775940E0,9.894353790E0
2.863682375E0,-7.643106079E-1,3.035537567E0,9.117240601E0,9.639643935E0
2.873624375E0,-6.589297485E-1,3.102298737E0,8.868757324E0,9.418773930E0
2.883566375E0,-6.018983459E-1,3.200644226E0,8.707542572E0,9.296650081E0
2.893508375E0,-5.857319641E-1,3.240611115E0,8.630303192E0,9.237249348E0
2.903450375E0,-6.312373352E-1,3.256328430E0,8.649463348E0,9.263657573E0
2.913392375E0,-6.724017334E-1,3.268453217E0,8.713530121E0,9.330622578E0
2.923334250E0,-7.047344971E-1,3.286266174E0,8.825796661E0,9.444092481E0
2.933275250E0,-7.738906860E-1,3.379821625E0,8.918903046E0,9.569165718E0
2.943217250E0,-8.048762512E-1,3.469634857E0,8.938212891E0,9.621737967E0
2.953159250E0,-9.464817810E-1,3.581003265E0,8.835825806E0,9.580773968E0
2.963101250E0,-1.114582214E0,3.754492493E0,8.743617554E0,9.580676141E0
2.973043250E0,-1.213825836E0,3.845652924E0,8.749006348E0,9.633666573E0
2.982985250E0,-1.253193970E0,3.822301483E0,8.803343353E0,9.678808705E0
2.992927250E0,-1.208886108E0,3.808829498E0,8.954678650E0,9.805858325E0
3.002869250E0,-1.206790466E0,3.861519928E0,9.234297180E0,1.008166275E1
3.012811250E0,-1.136586456E0,3.835623779E0,9.533824310E0,1.033913171E1
3.022753250E0,-1.123264160E0,3.807931366E0,9.684860229E0,1.046702352E1
3.032695250E0,-1.133742371E0,3.779789886E0,9.742939453E0,1.051175782E1
3.042637250E0,-1.122815094E0,3.809877319E0,9.811646576E0,1.058509742E1
3.052578250E0,-1.142873383E0,3.752845917E0,9.785151672E0,1.054225807E1
3.062520250E0,-1.119971008E0,3.633843384E0,9.729168091E0,1.044585394E1
3.072462250E0,-8.696914673E-1,3.751199341E0,9.762548676E0,1.049453269E1
3.082404250E0,-6.753955078E-1,3.894750824E0,9.762698364E0,1.053259334E1
3.092346250E0,-6.256988525E-1,3.446582794E0,9.728120270E0,1.033957233E1
3.102288250E0,-4.944218445E-1,3.301534424E0,9.641899567E0,1.020347048E1
3.112230250E0,-5.498066711E-1,3.452869720E0,9.433682556E0,1.006076355E1
3.122172250E0,-7.024891663E-1,3.748205566E0,9.146429901E0,9.909576981E0
3.132114250E0,-9.175918579E-1,4.020339661E0,8.821605377E0,9.737855371E0
3.142056250E0,-1.028960266E0,4.204606476E0,8.570128326E0,9.601279830E0
3.151998250E0,-7.671546936E-1,4.371808777E0,8.517288208E0,9.604448799E0
3.161940250E0,-2.633024597E-1,4.481380920E0,8.552914124E0,9.659422506E0
3.171881250E0,3.285667419E-1,4.487967224E0,8.645272064E0,9.746308787E0
3.181823250E0,7.174580383E-1,4.393064575E0,9.064999237E0,1.009890952E1
3.191765250E0,7.355703735E-1,4.168381805E0,9.883946228E0,1.075215623E1
3.201707250E0,7.162605286E-1,3.872447205E0,1.114462463E1,1.181996340E1
3.211649250E0,2.962339783E-1,3.436254272E0,1.245514938E1,1.292386723E1
3.221591250E0,-7.379653931E-1,2.927761688E0,1.144205612E1,1.183372425E1
3.231533250E0,-9.135502625E-1,2.752176819E0,1.068358337E1,1.107014024E1
3.241475250E0,-6.497987366E-1,2.734663239E0,1.035576508E1,1.073044695E1
3.251417250E0,-6.012995911E-1,3.015628967E0,1.002944366E1,1.049024878E1
3.261359250E0,-5.499563599E-1,3.413501587E0,9.440568237E0,1.005379400E1
3.271301250E0,-7.458988953E-1,3.294948120E0,8.698710938E0,9.331699751E0
3.281243250E0,-9.166937256E-1,3.187920685E0,8.073760529E0,8.728618147E0
3.291185250E0,-1.476080475E0,3.139122162E0,7.721992035E0,8.465344795E0
3.301126250E0,-1.438508606E0,3.098107452E0,7.679480438E0,8.404879333E0
3.311068250E0,-3.579057312E-1,3.337010651E0,7.643555145E0,8.347914222E0
3.321010250E0,9.339079285E-1,3.928430786E0,7.474855957E0,8.495776836E0
3.330952250E0,2.250420227E0,4.521347809E0,7.024442596E0,8.651576215E0
3.340894250E0,2.662213898E0,4.331392822E0,7.354805603E0,8.941001738E0
3.350836250E0,2.553839264E0,3.993844757E0,7.881111145E0,9.196999718E0
3.360778250E0,1.973645782E0,3.669169922E0,8.565937042E0,9.525406186E0
3.370720250E0,1.471589813E0,3.361709290E0,9.382938080E0,1.007502819E1
3.380662250E0,6.885681152E-1,3.295247498E0,9.768087158E0,1.033190732E1
3.390604250E0,-3.631448364E-1,3.277434540E0,9.733958130E0,1.027732418E1
3.400546250E0,-1.053958282E0,3.193159790E0,9.621242523E0,1.019192843E1
3.410488250E0,-1.241667938E0,3.093616791E0,9.634265442E0,1.019466894E1
3.420430250E0,-1.109792175E0,3.320245514E0,9.461524658E0,1.008841503E1
3.430371250E0,-9.565109253E-1,3.679498444E0,9.076674957E0,9.840713908E0
3.440313250E0,-8.916957092E-1,3.945195923E0,8.735384674E0,9.626351204E0
3.450255250E0,-8.970845032E-1,4.054169312E0,8.502918091E0,9.462592957E0
3.460197250E0,-9.279203796E-1,4.175267487E0,8.464448090E0,9.483711103E0
3.470139250E0,-9.409432983E-1,4.258344727E0,8.488847351E0,9.543552978E0
3.480081250E0,-8.595126343E-1,4.282743988E0,8.502019958E0,9.558504141E0
3.490023250E0,-7.042854309E-1,4.247417450E0,8.512198792E0,9.539082830E0
3.499965250E0,-5.191204834E-1,4.238286438E0,8.446186066E0,9.464175456E0
3.509907250E0,-2.609074402E-1,4.286935272E0,8.270900574E0,9.319532339E0
3.519849250E0,-3.832031250E-2,4.289330292E0,8.112679596E0,9.176894520E0
3.529791250E0,1.634600830E-1,4.284240875E0,8.068820801E0,9.137138950E0
3.539733250E0,1.936972046E-1,4.305646362E0,8.088130646E0,9.164822232E0
3.549675250E0,1.478924561E-1,4.308640137E0,8.217461700E0,9.279705211E0
3.559617250E0,8.637039185E-2,4.264481964E0,8.381370850E0,9.404288574E0
3.569558250E0,7.933502197E-3,4.192930756E0,8.549471283E0,9.522299642E0
3.579500250E0,-1.071771240E-1,4.154311066E0,8.698411560E0,9.640132314E0
3.589442250E0,-1.716929626E-1,4.087100830E0,8.849896545E0,9.749591814E0
3.599384250E0,-2.415975952E-1,3.935765533E0,8.988208923E0,9.815116881E0
3.609326250E0,-2.552192688E-1,3.802542572E0,9.089248810E0,9.855907407E0
3.619268250E0,-1.471440125E-1,3.768413544E0,9.149723053E0,9.896465225E0
3.629210250E0,-1.088237000E-1,3.819906464E0,9.151070251E0,9.916935753E0
3.639152250E0,-1.827699280E-1,3.837120667E0,9.025182037E0,9.808710958E0
3.649094250E0,-3.016227722E-1,3.846401367E0,9.015302582E0,9.806195002E0
3.659036250E0,-5.013075256E-1,3.894451447E0,9.097930756E0,9.909107192E0
3.668978250E0,-6.821315002E-1,3.925886078E0,9.214837646E0,1.003947796E1
3.678920250E0,-8.560697937E-1,3.887416077E0,9.318122864E0,1.013273275E1
3.688862250E0,-9.318122864E-1,3.793561249E0,9.425898743E0,1.020328125E1
3.698804250E0,-9.279203796E-1,3.769461365E0,9.523645477E0,1.028443962E1
3.708745250E0,-8.557704163E-1,3.914809113E0,9.438622284E0,1.025405598E1
3.718687250E0,-6.878196716E-1,4.239034882E0,9.072783051E0,1.003782371E1
3.728629250E0,-5.282514954E-1,4.487218781E0,8.626411285E0,9.738026170E0
3.738571250E0,-4.354444885E-1,4.601131897E0,8.280929718E0,9.483344538E0
3.748513250E0,-4.105961609E-1,4.650978241E0,8.201594696E0,9.437496668E0
3.758455250E0,-4.840933228E-1,4.636757812E0,8.280780029E0,9.502904148E0
3.768397250E0,-5.794450378E-1,4.421355743E0,8.571026459E0,9.661606374E0
3.778339250E0,-6.614744568E-1,4.094435577E0,9.096433868E0,9.997352663E0
3.788281250E0,-7.276368713E-1,3.863166504E0,9.605974274E0,1.037922216E1
3.798223250E0,-8.153544617E-1,3.646566925E0,9.843081207E0,1.052846147E1
3.808165250E0,-1.005159760E0,3.423830109E0,9.978699188E0,1.059751840E1
3.818107250E0,-1.264270935E0,3.222798157E0,1.019140686E1,1.076334440E1
3.828049250E0,-1.606609039E0,3.069367218E0,1.047087570E1,1.102911808E1
3.837991250E0,-1.856888580E0,2.944377136E0,1.081635727E1,1.136270111E1
3.847932250E0,-1.954036560E0,2.786156158E0,1.110795090E1,1.161755130E1
3.857874250E0,-2.057172089E0,2.572999420E0,1.120030884E1,1.167472488E1
3.867816250E0,-2.084565125E0,2.466421051E0,1.097278198E1,1.143811999E1
3.877758250E0,-1.965562592E0,2.521656189E0,1.036324951E1,1.084523521E1
3.887700250E0,-1.830243988E0,2.660866699E0,9.468410339E0,1.000403913E1
3.897642250E0,-1.712888031E0,2.838098145E0,8.637637939E0,9.251895787E0
3.907584250E0,-1.657952271E0,3.006647644E0,8.053103485E0,8.754496646E0
3.917526250E0,-1.778002625E0,3.148103485E0,7.679480438E0,8.488007345E0
3.927467791E0,-2.069596252E0,3.372486877E0,7.505691833E0,8.484828006E0
3.937409792E0,-2.383643188E0,3.520529022E0,7.498057709E0,8.619556186E0
3.947351791E0,-2.571502533E0,3.510050812E0,7.711064758E0,8.854016133E0
3.957293791E0,-2.647245026E0,3.420536957E0,8.052953796E0,9.141008924E0
3.967235791E0,-2.515369263E0,3.292104034E0,8.388855286E0,9.356170397E0
3.977177791E0,-2.303260345E0,3.149899750E0,8.681796112E0,9.518427411E0
3.987119792E0,-2.126328278E0,3.061284027E0,8.855884094E0,9.608299274E0
3.997061791E0,-1.968107300E0,3.008294220E0,8.945996704E0,9.641272607E0
4.007002791E0,-1.836231537E0,2.965782623E0,9.039252777E0,9.688947497E0
4.016944792E0,-1.726210327E0,2.899470520E0,9.146579590E0,9.749187124E0
4.026886791E0,-1.572779388E0,2.885549469E0,9.233249359E0,9.800659390E0
4.036828791E0,-1.443598022E0,2.847678223E0,9.292077026E0,9.825270580E0
4.046770792E0,-1.309476929E0,2.846031647E0,9.426497498E0,9.933452624E0
4.056712791E0,-1.112785950E0,2.899171143E0,9.547146606E0,1.003949671E1
4.066654792E0,-9.791139221E-1,2.957699432E0,9.443262634E0,9.943935800E0
4.076596791E0,-8.256829834E-1,3.007695465E0,9.311087494E0,9.819589336E0
4.086538792E0,-7.002438354E-1,3.124602356E0,9.171876984E0,9.714772705E0
4.096480791E0,-6.427633667E-1,3.244952087E0,8.953630829E0,9.545174897E0
4.106422791E0,-5.779481506E-1,3.367696838E0,8.731343079E0,9.376127026E0
4.116364792E0,-5.459147644E-1,3.435655518E0,8.533604279E0,9.215430199E0
4.126306791E0,-5.498066711E-1,3.582200775E0,8.375383301E0,9.125869559E0
4.136248792E0,-5.942642212E-1,3.690276031E0,8.258476410E0,9.064972133E0
4.146190791E0,-7.165599060E-1,3.755240936E0,8.191864929E0,9.040019005E0
4.156132792E0,-8.020321655E-1,3.818708954E0,8.297096100E0,9.168838387E0
4.166073791E0,-8.843609619E-1,3.822900238E0,8.481961670E0,9.345605080E0
4.176015791E0,-9.514215088E-1,3.802991638E0,8.724307709E0,9.564595824E0
4.185957791E0,-1.055006104E0,3.809278564E0,8.917855225E0,9.754577534E0
4.195899792E0,-1.149459686E0,3.808081055E0,9.116941223E0,9.946926970E0
4.205841791E0,-1.191222839E0,3.819756775E0,9.244326324E0,1.007308904E1
4.215783792E0,-1.196312256E0,3.857178955E0,9.301956482E0,1.014077842E1
4.225725791E0,-1.094972992E0,3.892954559E0,9.298663330E0,1.013998031E1
4.235667791E0,-9.601034546E-1,3.958218842E0,9.281748505E0,1.013608161E1
4.245609791E0,-9.128018188E-1,4.007765808E0,9.290131073E0,1.015883504E1
4.255551791E0,-8.789721680E-1,3.991000671E0,9.353449402E0,1.020723734E1
4.265493792E0,-8.671467590E-1,3.928879852E0,9.505682831E0,1.032211444E1
4.275435791E0,-8.771759033E-1,3.871100006E0,9.724527740E0,1.050339434E1
4.285377792E0,-8.696914673E-1,3.820505219E0,9.934690704E0,1.067945236E1
4.295319791E0,-8.565188599E-1,3.760480042E0,1.006761429E1,1.078108029E1
4.305261791E0,-8.223898315E-1,3.662433929E0,1.005189697E1,1.072988257E1
4.315203791E0,-7.881111145E-1,3.646866302E0,9.927355957E0,1.060533589E1
4.325144792E0,-6.659651184E-1,3.714675293E0,9.663305054E0,1.037409209E1
4.335086791E0,-5.360353088E-1,3.953129425E0,9.281748505E0,1.010274326E1
4.345028792E0,-3.803590393E-1,4.237238617E0,8.920250244E0,9.882799629E0
4.354970791E0,-2.264790344E-1,4.494852905E0,8.611592102E0,9.716713124E0
4.364912792E0,-1.363664246E-1,4.604125671E0,8.374036102E0,9.557251155E0
4.374854791E0,-1.522334290E-1,4.509672089E0,8.336763611E0,9.479554044E0
4.384796791E0,-2.016307068E-1,4.371808777E0,8.461154938E0,9.525991277E0
4.394738792E0,-3.299139404E-1,4.226311340E0,8.799900513E0,9.767742819E0
4.404680791E0,-5.771997070E-1,3.900139618E0,9.360784149E0,1.015719097E1
4.414622792E0,-9.425898743E-1,3.474125519E0,1.000399658E1,1.063193169E1
4.424564791E0,-1.324146423E0,3.085383911E0,1.063553329E1,1.115291559E1
4.434506792E0,-1.606758728E0,2.801125031E0,1.101110229E1,1.147485725E1
4.444448791E0,-1.744023285E0,2.592908020E0,1.114612152E1,1.157587207E1
4.454390791E0,-1.706451416E0,2.492167511E0,1.104089035E1,1.144657744E1
4.464332792E0,-1.523382111E0,2.527494049E0,1.063643143E1,1.103823322E1
4.474274791E0,-1.254241791E0,2.619552612E0,9.948761444E0,1.036402589E1
4.484215791E0,-8.442443848E-1,2.748284912E0,9.076225891E0,9.520698239E0
4.494157792E0,-4.644841003E-1,2.919528809E0,8.240364075E0,8.754598450E0
4.504099791E0,-1.769320679E-1,3.153941345E0,7.615413666E0,8.244584663E0
4.514041791E0,1.811233521E-2,3.344944153E0,7.153474274E0,7.896909119E0
4.523983791E0,6.271957397E-2,3.538042603E0,6.976392517E0,7.822514414E0
4.533925791E0,1.032852173E-1,3.738625488E0,7.171586609E0,8.088241024E0
4.543867792E0,1.459465027E-1,3.869603119E0,7.630532227E0,8.556877394E0
4.553809791E0,1.621128845E-1,3.900738373E0,8.061336365E0,8.956962902E0
4.563751792E0,1.440005493E-1,3.844754791E0,8.321794739E0,9.168159207E0
4.573693791E0,6.077362061E-2,3.600313110E0,8.480614471E0,9.213401638E0
4.583635791E0,-1.001417542E-1,3.310964813E0,8.656199341E0,9.268349551E0
4.593577791E0,-3.864962769E-1,3.008892975E0,9.028475189E0,9.524504215E0
4.603519791E0,-6.912625122E-1,2.671494598E0,9.638756104E0,1.002598357E1
4.613461792E0,-1.173260193E0,2.472558289E0,1.041129959E1,1.076500084E1
4.623403791E0,-1.396146698E0,2.390977936E0,1.109732300E1,1.143750754E1
4.633345792E0,-1.401385803E0,2.372117157E0,1.138622223E1,1.171481449E1
4.643287791E0,-1.363514557E0,2.378853149E0,1.127320724E1,1.160186691E1
4.653229791E0,-1.344953156E0,2.519859924E0,1.085662354E1,1.122607980E1
4.663170791E0,-1.284628601E0,2.750829620E0,1.016401382E1,1.060775713E1
4.673112791E0,-1.222208405E0,2.992427216E0,9.332492981E0,9.876428467E0
4.683054791E0,-1.168320465E0,3.218457184E0,8.624465332E0,9.279269455E0
4.692996792E0,-1.102607117E0,3.475323029E0,7.984695740E0,8.777754762E0
4.702938791E0,-9.406439209E-1,3.739523621E0,7.429949341E0,8.370961420E0
4.712880792E0,-7.255412292E-1,3.938010864E0,7.022796021E0,8.084182308E0
4.722822791E0,-4.567002869E-1,4.061803436E0,6.790778503E0,7.926001198E0
4.732764791E0,-2.944377136E-1,4.195026398E0,6.729555817E0,7.935481178E0
4.742706791E0,-2.676434326E-1,4.368365936E0,6.732399902E0,8.029910486E0
4.752648791E0,-2.615061951E-1,4.416715393E0,6.795568542E0,8.108977258E0
4.762590792E0,-1.715432739E-1,4.364923096E0,7.059170380E0,8.301437657E0
4.772532791E0,-6.256988525E-2,4.261488190E0,7.589517517E0,8.704307711E0
4.782474792E0,-8.831634521E-3,4.180356903E0,8.162376251E0,9.170596922E0
4.792416791E0,-4.909790039E-2,4.118685150E0,8.601862335E0,9.537191075E0
4.802358791E0,-1.251397705E-1,4.000131683E0,8.879235535E0,9.739483412E0
4.812300791E0,-2.459385681E-1,3.911066895E0,9.104067993E0,9.911658996E0
4.822242791E0,-2.984793091E-1,3.884721680E0,9.248367920E0,1.003555986E1
4.832184792E0,-3.433859253E-1,3.871998138E0,9.418114929E0,1.018877678E1
4.842126791E0,-3.209326172E-1,3.832480316E0,9.565558319E0,1.030974340E1
4.852067791E0,-2.972817993E-1,3.842808838E0,9.727072449E0,1.046286264E1
4.862009792E0,-2.535726929E-1,4.000131683E0,9.884095917E0,1.066586634E1
4.871951791E0,-3.600013733E-1,4.058809662E0,9.987830200E0,1.078704264E1
4.881893791E0,-5.807922363E-1,4.013304291E0,1.011341904E1,1.089610828E1
4.891835792E0,-8.050259399E-1,4.035158844E0,1.025442581E1,1.104915483E1
4.901777791E0,-9.484277344E-1,4.052522736E0,1.038854691E1,1.119126277E1
4.911719792E0,-1.052611084E0,4.023632812E0,1.048554520E1,1.128026016E1
4.921661750E0,-1.089584198E0,3.982019348E0,1.041788589E1,1.120607060E1
4.931603750E0,-1.010249176E0,3.950584717E0,1.025083328E1,1.103210343E1
4.941545750E0,-7.972421265E-1,4.007167053E0,1.001627106E1,1.081751675E1
4.951487750E0,-5.610333252E-1,4.259841614E0,9.645342407E0,1.055905484E1
4.961429750E0,-3.586541748E-1,4.580175476E0,9.194030914E0,1.027797863E1
4.971371750E0,-4.249662781E-1,4.653972015E0,8.914711761E0,1.006539307E1
4.981313750E0,-8.677455139E-1,4.569248199E0,8.865314484E0,1.001123430E1
4.991255750E0,-1.489851837E0,4.592899017E0,9.043743439E0,1.025200835E1
5.001197750E0,-2.026336212E0,4.580474854E0,9.230854340E0,1.050216455E1
5.011139750E0,-2.513423309E0,4.369264069E0,9.492210846E0,1.074755005E1
5.021081750E0,-2.881507874E0,4.013004913E0,1.006776398E1,1.121459618E1
5.031023750E0,-2.980003052E0,3.492986298E0,1.090377548E1,1.183104777E1
5.040965750E0,-2.752625885E0,2.848127289E0,1.173754166E1,1.238784333E1
5.050906750E0,-2.267035675E0,2.335293732E0,1.233075806E1,1.275306402E1
5.060848750E0,-1.789528656E0,2.030677185E0,1.243658798E1,1.272771713E1
5.070790750E0,-1.237925720E0,1.877545624E0,1.185040695E1,1.206191455E1
5.080732750E0,-8.324189758E-1,1.996398468E0,1.073777069E1,1.095345825E1
5.090674750E0,-5.890251160E-1,2.100432129E0,9.667795715E0,9.910854641E0
5.100616750E0,-6.331832886E-1,2.367626495E0,8.752598877E0,9.089255382E0
5.110558750E0,-4.641847229E-1,2.523901520E0,8.265362091E0,8.654580107E0
5.120500750E0,-4.144880676E-1,2.899919586E0,8.173602905E0,8.682690736E0
5.130442750E0,-6.315367126E-1,3.228486328E0,8.274493103E0,8.904448254E0
5.140384750E0,-1.436412964E0,2.958747253E0,8.417146454E0,9.036914404E0
5.150326750E0,-2.108814697E0,3.237617340E0,8.498876495E0,9.335960966E0
5.160268750E0,-2.520458679E0,3.290008392E0,8.557853851E0,9.508613449E0
5.170210750E0,-2.770438843E0,3.043620758E0,8.718170471E0,9.640822323E0
5.180152750E0,-2.619402924E0,3.228636017E0,8.723259888E0,9.663365111E0
5.190094750E0,-2.613565063E0,3.195405121E0,8.534801788E0,9.480726649E0
5.200036750E0,-2.501448212E0,3.123255157E0,8.578211517E0,9.465605040E0
5.209978750E0,-2.199975128E0,3.127147064E0,8.563691711E0,9.378472960E0
5.219920750E0,-2.004631348E0,3.094215546E0,8.467890930E0,9.235685870E0
5.229862750E0,-1.849254456E0,3.107986908E0,8.446036377E0,9.187755718E0
5.239804750E0,-1.598376160E0,3.172502747E0,8.410859528E0,9.130286853E0
5.249745750E0,-1.351090393E0,3.212319946E0,8.335865479E0,9.034992970E0
5.259687750E0,-1.071621552E0,3.222049713E0,8.293353882E0,8.961567704E0
5.269629750E0,-8.554710388E-1,3.318000183E0,8.134234772E0,8.826478983E0
5.279571750E0,-7.720944214E-1,3.472928009E0,7.971373444E0,8.729269920E0
5.289513750E0,-7.875123596E-1,3.641028442E0,7.859555969E0,8.697694170E0
5.299455750E0,-9.108558655E-1,3.765270081E0,7.783364410E0,8.694117479E0
5.309397750E0,-9.759704590E-1,3.989803162E0,7.829468536E0,8.841471889E0
5.319339750E0,-1.097667389E0,4.042942657E0,7.790848846E0,8.845766489E0
5.329281750E0,-1.286574554E0,3.947141876E0,7.851921844E0,8.881884920E0
5.339223750E0,-1.329834595E0,4.004772034E0,8.037386169E0,9.077788031E0
5.349165750E0,-1.460512848E0,3.958218842E0,8.179291077E0,9.203336172E0
5.359107750E0,-1.613195343E0,3.882176971E0,8.355624390E0,9.353617279E0
5.369049750E0,-1.785936127E0,3.813769226E0,8.493637390E0,9.480310104E0
5.378991750E0,-1.959125977E0,3.735631714E0,8.553961945E0,9.537472613E0
5.388933750E0,-2.153871002E0,3.728446655E0,8.587641907E0,9.606667907E0
5.398875750E0,-2.221380615E0,3.670966187E0,8.688831482E0,9.690527184E0
5.408817750E0,-2.383643188E0,3.630250854E0,8.726553040E0,9.747471676E0
5.418759750E0,-2.499801636E0,3.631298676E0,8.754245453E0,9.801640258E0
5.428701750E0,-2.517913971E0,3.647315369E0,8.811875610E0,9.863668280E0
5.438643750E0,-2.468666382E0,3.700305176E0,8.852141876E0,9.906916165E0
5.448585750E0,-2.344873810E0,3.731141052E0,9.006770325E0,1.002705133E1
5.458526750E0,-2.081870728E0,3.817062378E0,9.131011963E0,1.011333429E1
5.468468750E0,-1.697021027E0,4.015100555E0,9.079818420E0,1.007194199E1
5.478410750E0,-1.285676422E0,4.351451111E0,8.797655182E0,9.898829594E0
5.488352750E0,-9.307644653E-1,4.715793457E0,8.409063263E0,9.685936990E0
5.498294750E0,-6.873706055E-1,4.932093658E0,8.188571777E0,9.583878858E0
5.508236750E0,-6.809339905E-1,4.866529999E0,8.240513763E0,9.594417774E0
5.518178750E0,-9.738748169E-1,4.501738586E0,8.492589569E0,9.661167634E0
5.528120750E0,-1.414857788E0,4.028422852E0,9.057365112E0,1.001328498E1
5.538062750E0,-2.150128784E0,3.630849609E0,9.884694672E0,1.074771192E1
5.548004750E0,-2.640509033E0,3.126099243E0,1.099044525E1,1.172751769E1
5.557946750E0,-2.772384796E0,2.765948181E0,1.187735092E1,1.250632047E1
5.567888750E0,-2.574496307E0,2.677332458E0,1.222702377E1,1.277874214E1
5.577830750E0,-2.130818939E0,2.561174011E0,1.178978302E1,1.225148911E1
5.587772750E0,-1.393302612E0,2.645897827E0,1.076486435E1,1.117248280E1
5.597714750E0,-5.794450378E-1,2.955454102E0,9.610464935E0,1.007132076E1
5.607656750E0,-1.014889526E-1,3.237916718E0,8.752748566E0,9.333006597E0
5.617598750E0,7.289840698E-2,3.473227386E0,8.331973572E0,9.027203679E0
5.627540750E0,-6.466552734E-2,3.748804321E0,8.408763885E0,9.206792360E0
5.637482750E0,-2.468367004E-1,3.896846466E0,8.621621246E0,9.464602139E0
5.647424750E0,-4.775070190E-1,3.839515686E0,8.919202423E0,9.722245909E0
5.657366750E0,-7.411088562E-1,3.692221985E0,9.182355194E0,9.924585252E0
5.667308750E0,-1.109941864E0,3.577261047E0,9.224417725E0,9.955834968E0
5.677250750E0,-1.489552460E0,3.515589294E0,9.138047333E0,9.903637901E0
5.687191750E0,-1.645228729E0,3.380869446E0,9.363927612E0,1.009059939E1
5.697133750E0,-1.538500671E0,3.291804657E0,9.438921661E0,1.011415861E1
5.707075750E0,-1.369352417E0,3.182681580E0,9.358538818E0,9.979320463E0
5.717017750E0,-1.253643036E0,3.119812317E0,9.413923645E0,9.996339738E0
5.726959750E0,-1.255888367E0,3.075055389E0,9.446555786E0,1.001352273E1
5.736901750E0,-1.244661713E0,3.130140839E0,9.362580414E0,9.950119419E0
5.746843750E0,-1.294957123E0,3.216960297E0,9.116043091E0,9.753357839E0
5.756785750E0,-1.395248566E0,3.236569519E0,8.828341370E0,9.505877769E0
5.766727750E0,-1.430275726E0,3.272045746E0,8.550219727E0,9.265971584E0
5.776669750E0,-1.493144989E0,3.369343414E0,8.331524506E0,9.110228185E0
5.786611750E0,-1.600172424E0,3.588487701E0,8.189918976E0,9.083642915E0
5.796553750E0,-1.673070831E0,3.771407318E0,8.054450684E0,9.049688115E0
5.806495750E0,-1.760788422E0,3.884571991E0,7.936046906E0,9.009501424E0
5.816437750E0,-2.204615479E0,4.117487640E0,7.721393280E0,9.024076023E0
5.826379750E0,-2.166295166E0,4.259991302E0,7.807763672E0,9.154317790E0
5.836321750E0,-2.070344696E0,4.196523285E0,7.672145691E0,8.986598597E0
5.846263750E0,-2.085463257E0,4.250860291E0,7.470664673E0,8.844761210E0
5.856205750E0,-2.166145477E0,4.303700409E0,7.435637512E0,8.860176559E0
5.866147750E0,-2.329904938E0,4.364923096E0,7.530540161E0,9.010551913E0
5.876089750E0,-2.481240234E0,4.406536560E0,7.741601257E0,9.246972888E0
5.886031750E0,-2.622546387E0,4.452790375E0,7.954757996E0,9.485951003E0
5.895973750E0,-2.756966858E0,4.459077301E0,8.208031311E0,9.739405251E0
5.905915750E0,-2.768792267E0,4.380191345E0,8.432714081E0,9.897623634E0
5.915857750E0,-2.608924713E0,4.283642120E0,8.572673035E0,9.932109591E0
5.925799416E0,-2.299667816E0,4.205953674E0,8.588839417E0,9.835989066E0
5.935740416E0,-1.980232086E0,4.184697876E0,8.442144470E0,9.628230299E0
5.945682416E0,-1.815275116E0,4.206851807E0,8.266709290E0,9.451524128E0
5.955624416E0,-1.727856903E0,4.262835388E0,8.159831543E0,9.366968871E0
5.965566416E0,-1.668729858E0,4.326004028E0,8.120912476E0,9.351373676E0
5.975508417E0,-1.662742310E0,4.331692200E0,8.098908234E0,9.333840789E0
5.985450416E0,-1.613494720E0,4.296215973E0,8.148904266E0,9.352297987E0
5.995392417E0,-1.549577637E0,4.279450836E0,8.203840027E0,9.381784558E0
6.005334416E0,-1.447639618E0,4.287084961E0,8.229885864E0,9.391793187E0
6.015276416E0,-1.377884674E0,4.298910370E0,8.277786255E0,9.428729598E0
6.025218416E0,-1.415456543E0,4.270768890E0,8.437803497E0,9.562400954E0
6.035160416E0,-1.514101410E0,4.270768890E0,8.596323853E0,9.717445846E0
6.045102417E0,-1.607207794E0,4.342020721E0,8.768016815E0,9.915360796E0
6.055044416E0,-1.676813049E0,4.399052124E0,8.982071686E0,1.014105386E1
6.064986417E0,-1.714684296E0,4.426744537E0,9.077722778E0,1.024408416E1
6.074928416E0,-1.610201569E0,4.398603058E0,9.051227875E0,1.019142699E1
6.084870416E0,-1.566193085E0,4.326602783E0,8.976982269E0,1.008754990E1
6.094812416E0,-1.552571411E0,4.297712860E0,8.857830048E0,9.967044044E0
6.104754416E0,-1.383572845E0,4.346361694E0,8.746910706E0,9.864764604E0
6.114696417E0,-9.487271118E-1,4.617298279E0,8.498128052E0,9.717906509E0
6.124638416E0,-5.173242188E-1,5.188211060E0,8.149652710E0,9.674812538E0
6.134580417E0,-4.688250732E-1,5.624703369E0,7.920179901E0,9.725550607E0
6.144522416E0,-8.289761353E-1,5.668262787E0,8.014633484E0,9.851434126E0
6.154464416E0,-1.298100586E0,5.451513519E0,8.230035553E0,9.956784119E0
6.164406416E0,-1.879491577E0,5.056484985E0,8.471034393E0,1.004285580E1
6.174348416E0,-2.775378571E0,4.622687073E0,9.231303406E0,1.069059982E1
6.184289416E0,-3.598217468E0,4.325554962E0,1.023781036E1,1.168205272E1
6.194231417E0,-3.970044250E0,4.079017639E0,1.126721970E1,1.262338607E1
6.204173416E0,-4.338577881E0,3.254083099E0,1.211221252E1,1.327094598E1
6.214115417E0,-3.865561523E0,2.423161011E0,1.251487518E1,1.332052462E1
6.224057416E0,-3.112477570E0,2.007026367E0,1.222971817E1,1.277817193E1
6.233999416E0,-2.431543579E0,1.765279083E0,1.149444717E1,1.188069570E1
6.243941416E0,-1.942211151E0,1.766626282E0,1.058389069E1,1.090467306E1
6.253883416E0,-1.623374176E0,1.936822357E0,9.574689331E0,9.902590588E0
6.263825417E0,-1.520238647E0,2.144440613E0,8.666976929E0,9.056833893E0
6.273767416E0,-1.665137329E0,2.409689026E0,8.035589905E0,8.552776663E0
6.283709417E0,-2.014660492E0,2.636617126E0,7.783813477E0,8.461581354E0
6.293651416E0,-2.554138641E0,2.857707367E0,7.840096436E0,8.726810856E0
6.303593416E0,-3.171604614E0,3.099754028E0,8.109236755E0,9.242687467E0
6.313535416E0,-3.721411285E0,3.266207886E0,8.379275208E0,9.732896224E0
6.323477416E0,-3.984414368E0,3.295397186E0,8.481362915E0,9.933212842E0
6.333419417E0,-4.020339661E0,3.156635742E0,8.490044861E0,9.910012207E0
6.343361416E0,-4.015100555E0,3.085383911E0,8.426277466E0,9.830705889E0
6.353303417E0,-3.914659424E0,2.937192078E0,8.578959961E0,9.876750970E0
6.363245416E0,-3.784729614E0,2.791544952E0,8.882977753E0,1.005107931E1
6.373187416E0,-3.578907623E0,2.655627594E0,9.224417725E0,1.024455075E1
6.383129416E0,-3.218756561E0,2.608775024E0,9.532926178E0,1.039436301E1
6.393071416E0,-2.774480438E0,2.633473663E0,9.643246765E0,1.037425339E1
6.403013417E0,-2.308798828E0,2.533032532E0,9.566157074E0,1.016160258E1
6.412955416E0,-2.015558624E0,2.341131592E0,9.421108704E0,9.914669077E0
6.422897417E0,-1.735790405E0,2.377505951E0,9.473649445E0,9.920460507E0
6.432839416E0,-1.371597748E0,2.611768799E0,9.379944305E0,9.832902512E0
6.442781416E0,-1.065334625E0,2.689307556E0,9.140142975E0,9.586945634E0
6.452723416E0,-8.687933350E-1,2.723735962E0,8.824599152E0,9.276157051E0
6.462665416E0,-7.291337585E-1,2.791095886E0,8.587342529E0,9.058935037E0
6.472606416E0,-7.011419678E-1,2.888094177E0,8.431067505E0,8.939551852E0
6.482548417E0,-7.253915405E-1,2.977308655E0,8.318202209E0,8.864707988E0
6.492490416E0,-7.364685059E-1,3.084336090E0,8.292755127E0,8.878361480E0
6.502432417E0,-7.427554321E-1,3.114423523E0,8.393795013E0,8.983713833E0
6.512374416E0,-8.032296753E-1,3.139870605E0,8.587791595E0,9.179004838E0
6.522316416E0,-9.126521301E-1,3.096311188E0,8.885672150E0,9.453848234E0
6.532258417E0,-1.040635986E0,2.984942780E0,9.259744263E0,9.784460663E0
6.542200416E0,-1.156495056E0,2.942281494E0,9.562115479E0,1.007117439E1
6.552142417E0,-1.266965332E0,2.907703400E0,9.753717041E0,1.025645827E1
6.562084416E0,-1.318757629E0,2.968327332E0,9.894574127E0,1.041406194E1
6.572026417E0,-1.386416931E0,3.057841187E0,9.950108643E0,1.050129547E1
6.581968416E0,-1.469344482E0,3.159928894E0,9.906549225E0,1.050161137E1
6.591910416E0,-1.555714874E0,3.211870880E0,9.839488678E0,1.046670439E1
6.601852417E0,-1.712139587E0,3.225193176E0,9.826914825E0,1.048339392E1
6.611794416E0,-1.877246246E0,3.224594421E0,9.895472260E0,1.057555833E1
6.621736417E0,-1.995051270E0,3.167413330E0,9.968370667E0,1.064805853E1
6.631678416E0,-2.051334229E0,3.129242706E0,1.002151016E1,1.069723319E1
6.641620417E0,-2.035317535E0,3.129242706E0,1.002106110E1,1.069375252E1
6.651562416E0,-1.991608429E0,3.156486053E0,9.909692688E0,1.058923593E1
6.661504416E0,-1.879192200E0,3.198099518E0,9.767638092E0,1.044825142E1
6.671446417E0,-1.716181183E0,3.243455200E0,9.598489838E0,1.027600538E1
6.681388416E0,-1.580413513E0,3.298091583E0,9.406289520E0,1.009224442E1
6.691330417E0,-1.495390320E0,3.351081390E0,9.199120331E0,9.904027138E0
6.701272416E0,-1.469643860E0,3.405418396E0,9.022188263E0,9.754824887E0
6.711214417E0,-1.476978607E0,3.431015167E0,8.826545105E0,9.584426398E0
6.721156416E0,-1.483115845E0,3.423081665E0,8.685987396E0,9.453226843E0
6.731098416E0,-1.512454834E0,3.410507812E0,8.548124084E0,9.326816634E0
6.741040417E0,-1.506467285E0,3.469036102E0,8.440647583E0,9.249226280E0
6.750982416E0,-1.461710358E0,3.592379608E0,8.330925751E0,9.189456583E0
6.760924417E0,-1.353186035E0,3.867657166E0,8.168214111E0,9.138359052E0
6.770865417E0,-1.153201904E0,4.233346710E0,7.917186127E0,9.051681345E0
6.780807416E0,-8.741821289E-1,4.678670654E0,7.575895844E0,8.946974423E0
6.790749416E0,-7.367678833E-1,5.112767944E0,7.325466614E0,8.963575407E0
6.800691416E0,-8.777746582E-1,5.308560791E0,7.362888794E0,9.119398961E0
6.810633416E0,-1.193318481E0,5.129832458E0,7.604935455E0,9.250634212E0
6.820575417E0,-1.457070007E0,4.789440308E0,7.866890717E0,9.324685572E0
6.830517416E0,-1.882335663E0,4.370910645E0,8.299042053E0,9.566720776E0
6.840459417E0,-2.420017548E0,4.033212891E0,9.163644104E0,1.030027497E1
6.850401416E0,-2.759661255E0,3.538641357E0,1.002719833E1,1.098555503E1
6.860343416E0,-2.702180786E0,3.074157257E0,1.075393707E1,1.150649323E1
6.870285416E0,-2.222278748E0,2.605781250E0,1.132410141E1,1.183063361E1
6.880227416E0,-1.448537750E0,2.243833923E0,1.149130371E1,1.179758930E1
6.890169417E0,-7.461982727E-1,1.890718231E0,1.121078705E1,1.139356720E1
6.900111416E0,-3.212319946E-1,1.711241455E0,1.077998291E1,1.091968721E1
6.910053417E0,-3.577560425E-2,1.800605621E0,1.028151947E1,1.043806031E1
6.919995416E0,1.468446350E-1,2.096390533E0,9.716743927E0,9.941404788E0
6.929937541E0,3.156935120E-1,2.563718719E0,9.051227875E0,9.412600178E0
6.939879541E0,3.116519165E-1,3.102897491E0,8.507408752E0,9.060965922E0
6.949821542E0,8.666976929E-2,3.564088440E0,8.158484344E0,8.903432195E0
6.959763541E0,-1.594184875E-1,3.612886963E0,7.893385620E0,8.682390397E0
6.969705542E0,-4.037104797E-1,3.899540863E0,7.792645111E0,8.723228698E0
6.979647541E0,-6.376739502E-1,4.099375305E0,7.805368652E0,8.839416596E0
6.989589541E0,-8.190966797E-1,4.101321259E0,7.761659546E0,8.816751916E0
6.999531541E0,-9.794132996E-1,3.973487091E0,7.756121063E0,8.769564643E0
7.009473541E0,-1.138233032E0,3.868854675E0,7.862849121E0,8.836741890E0
7.019415542E0,-1.428928528E0,3.765868835E0,8.101902008E0,9.047895942E0
7.029357541E0,-1.773062897E0,3.633693695E0,8.600964203E0,9.503897470E0
7.039299542E0,-1.979333954E0,3.511248322E0,9.270970917E0,1.010927937E1
7.049241541E0,-2.111958160E0,3.416794739E0,9.931996307E0,1.071351503E1
7.059183541E0,-2.150727539E0,3.314407654E0,1.039887543E1,1.112418704E1
7.069125541E0,-2.014959869E0,3.226540375E0,1.071980804E1,1.137474881E1
7.079067541E0,-1.720522156E0,3.144361267E0,1.072399933E1,1.130713783E1
7.089008541E0,-1.460812225E0,3.149899750E0,1.034289185E1,1.091014448E1
7.098950542E0,-1.245260468E0,3.281476135E0,9.704020386E0,1.031924275E1
7.108892541E0,-1.089135132E0,3.455863495E0,9.043294373E0,9.742195899E0
7.118834542E0,-9.696835327E-1,3.627107391E0,8.547675018E0,9.335895372E0
7.128776541E0,-8.990304565E-1,3.761677551E0,8.084687805E0,8.962178902E0
7.138718541E0,-8.958869934E-1,3.880829773E0,7.730075226E0,8.695833268E0
7.148660542E0,-9.081614685E-1,4.002077637E0,7.491621094E0,8.542000309E0
7.158602541E0,-9.238787842E-1,4.080364838E0,7.400610352E0,8.501291831E0
7.168544542E0,-8.857081604E-1,4.082161102E0,7.403005371E0,8.500176865E0
7.178486541E0,-7.988887024E-1,4.074976044E0,7.449857941E0,8.529011446E0
7.188428542E0,-7.758366394E-1,4.145629120E0,7.448660431E0,8.559830927E0
7.198370541E0,-8.259823608E-1,4.186045074E0,7.546706543E0,8.669371365E0
7.208312541E0,-8.678952026E-1,4.256548462E0,7.829169159E0,8.953621424E0
7.218254542E0,-8.631051636E-1,4.347858582E0,8.191266174E0,9.313735357E0
7.228196541E0,-8.954379272E-1,4.336931305E0,8.541986847E0,9.621658980E0
7.238138542E0,-8.797206116E-1,4.282444611E0,8.807534637E0,9.832899195E0
7.248080541E0,-8.078700256E-1,4.224964142E0,9.026678925E0,9.999195387E0
7.258022542E0,-6.503974915E-1,4.217330017E0,9.159752197E0,1.010494679E1
7.267964541E0,-5.462141418E-1,4.124373322E0,9.292376404E0,1.018121134E1
7.277906541E0,-5.364843750E-1,3.988455963E0,9.430688782E0,1.025346221E1
7.287848542E0,-4.405339050E-1,3.973038025E0,9.469458160E0,1.027860589E1
7.297790541E0,-3.450325012E-1,3.988605652E0,9.352401581E0,1.017327075E1
7.307732542E0,-3.397933960E-1,3.973936157E0,9.291328583E0,1.011120245E1
7.317674541E0,-3.439846802E-1,4.008214874E0,9.308393097E0,1.014052730E1
7.327616542E0,-4.161346436E-1,4.015699310E0,9.260941772E0,1.010267546E1
7.337558541E0,-4.942721558E-1,3.938609619E0,9.300160217E0,1.011187078E1
7.347500541E0,-5.475613403E-1,3.879033508E0,9.406439209E0,1.018959386E1
7.357442542E0,-6.762936401E-1,3.865262146E0,9.473350067E0,1.025387663E1
7.367384541E0,-6.239025879E-1,4.101470947E0,9.404493256E0,1.027890129E1
7.377326542E0,-4.260140991E-1,4.661606140E0,9.118737488E0,1.025004552E1
7.387268541E0,-4.752616882E-1,5.179229736E0,8.873547363E0,1.028543325E1
7.397210542E0,-9.562115479E-1,5.206173706E0,8.680748291E0,1.016729935E1
7.407152541E0,-1.747017059E0,4.757855988E0,8.631051636E0,1.000921148E1
7.417094541E0,-2.467618561E0,4.277953949E0,9.247769165E0,1.048385740E1
7.427036542E0,-3.093018036E0,3.871698761E0,1.041534119E1,1.153412952E1
7.436977542E0,-3.432512054E0,3.274141388E0,1.135314102E1,1.230430623E1
7.446919541E0,-3.479214935E0,2.691702576E0,1.191866501E1,1.270451789E1
7.456861542E0,-3.051254883E0,2.173779602E0,1.181642761E1,1.239610566E1
7.466803541E0,-2.441273346E0,2.176773376E0,1.072399933E1,1.121170458E1
7.476745541E0,-1.708696747E0,2.341281281E0,9.691596222E0,1.011574416E1
7.486687541E0,-9.942324829E-1,2.359243927E0,8.761879578E0,9.128256343E0
7.496629541E0,-5.828878784E-1,2.276915131E0,8.021818542E0,8.359047405E0
7.506571542E0,-4.956193542E-1,2.322719879E0,7.520061951E0,7.886190330E0
7.516513541E0,-6.279441833E-1,2.632126465E0,7.373816071E0,7.854652575E0
7.526455542E0,-1.044228516E0,2.975213013E0,7.794890442E0,8.408485159E0
7.536397541E0,-1.768123169E0,3.168461151E0,8.479566650E0,9.223256268E0
7.546339541E0,-2.309247894E0,3.341800690E0,8.977581024E0,9.853792099E0
7.556281541E0,-2.588716736E0,3.393293610E0,9.266031189E0,1.020172681E1
7.566223541E0,-2.865191803E0,3.261417847E0,9.435628510E0,1.038639763E1
7.576165542E0,-2.987337799E0,3.208727417E0,9.527387695E0,1.048767062E1
7.586107541E0,-2.998265076E0,3.221151581E0,9.640252991E0,1.059716418E1
7.596049542E0,-2.926115112E0,3.262465668E0,9.688303070E0,1.063339307E1
7.605991541E0,-2.669548645E0,3.494183807E0,9.689650269E0,1.064072990E1
7.615933541E0,-2.412533112E0,3.787274323E0,9.574839020E0,1.057550496E1
7.625875541E0,-2.207758942E0,3.736380157E0,9.461824036E0,1.040965179E1
7.635817541E0,-1.978585510E0,3.561244354E0,9.543404388E0,1.037660008E1
7.645759542E0,-1.457219696E0,3.491639099E0,9.650581512E0,1.036574919E1
7.655701541E0,-8.831634521E-1,3.325185242E0,9.515861664E0,1.011871819E1
7.665643542E0,-5.191204834E-1,3.155138855E0,9.353299713E0,9.884766198E0
7.675585541E0,-3.832031250E-1,3.129691772E0,9.150471497E0,9.678478384E0
7.685527541E0,-4.230203247E-1,3.279979248E0,8.865164795E0,9.461942554E0
7.695469541E0,-5.818400574E-1,3.538491669E0,8.557853851E0,9.278810467E0
7.705411541E0,-8.253836060E-1,3.745361481E0,8.265661469E0,9.112088138E0
7.715353542E0,-9.928852844E-1,3.827690277E0,8.022117920E0,8.943791700E0
7.725295541E0,-1.113384705E0,3.888613586E0,7.858059082E0,8.837988100E0
7.735237542E0,-1.195114746E0,3.989503784E0,7.779472504E0,8.824093842E0
7.745179541E0,-1.208736420E0,4.052073669E0,7.763904877E0,8.840733210E0
7.755121541E0,-1.216220856E0,4.065395966E0,7.817942505E0,8.895328130E0
7.765063541E0,-1.258582764E0,3.989803162E0,7.967631226E0,8.999205920E0
7.775005541E0,-1.347797241E0,3.916156311E0,8.183632050E0,9.171950239E0
7.784947542E0,-1.412462769E0,3.886218567E0,8.407716064E0,9.369494930E0
7.794889541E0,-1.503174133E0,3.881877594E0,8.642427979E0,9.592709080E0
7.804831542E0,-1.554068298E0,3.939657440E0,8.806337128E0,9.771775818E0
7.814772542E0,-1.600172424E0,4.002077637E0,8.910520477E0,9.898209554E0
7.824715541E0,-1.612895966E0,4.091292114E0,8.944350128E0,9.967020807E0
7.834656541E0,-1.594933319E0,4.159101105E0,8.848100281E0,9.906099781E0
7.844598542E0,-1.584305420E0,4.209097137E0,8.729097748E0,9.819555482E0
7.854540541E0,-1.588796082E0,4.205654297E0,8.703351288E0,9.795923882E0
7.864482542E0,-1.559756470E0,4.126618652E0,8.801996155E0,9.845656812E0
7.874424541E0,-1.494492188E0,3.999532928E0,8.920848999E0,9.889960435E0
7.884366542E0,-1.327888641E0,3.857927399E0,9.002129974E0,9.883584174E0
7.894308541E0,-1.112336884E0,3.743565216E0,9.054071960E0,9.860415454E0
7.904250541E0,-8.997789001E-1,3.732637939E0,8.957971802E0,9.746150361E0
7.914192542E0,-6.897656250E-1,3.892954559E0,8.726553040E0,9.580375764E0
7.924134875E0,-4.290078735E-1,4.185146942E0,8.447682953E0,9.437311585E0
7.934076875E0,-2.083666992E-1,4.683760071E0,8.202492828E0,9.447852332E0
7.944018875E0,-1.016386414E-1,5.244044952E0,8.032596130E0,9.593379929E0
7.953960875E0,-2.501298523E-1,5.636977844E0,8.192313995E0,9.947466650E0
7.963902875E0,-6.563850403E-1,5.716013489E0,8.461304626E0,1.023217120E1
7.973844875E0,-1.163081360E0,5.535638580E0,8.712033234E0,1.038727952E1
7.983786875E0,-1.682501221E0,5.254672852E0,9.001980286E0,1.055831645E1
7.993728875E0,-2.214345245E0,4.705614624E0,9.487869873E0,1.081969540E1
8.003670875E0,-2.604284363E0,4.074077911E0,1.026235931E1,1.134444474E1
8.013612875E0,-2.756368103E0,3.435505829E0,1.117261642E1,1.200948055E1
8.023554875E0,-2.644850006E0,3.004102936E0,1.166793640E1,1.233533971E1
8.033496875E0,-2.367476807E0,2.959795074E0,1.144385239E1,1.205516863E1
8.043438875E0,-1.789079590E0,2.950813751E0,1.073223221E1,1.127337198E1
8.053380875E0,-9.012757874E-1,2.776276703E0,9.761800232E0,1.018885441E1
8.063322875E0,-9.669891357E-2,2.828069000E0,8.896449738E0,9.335638322E0
8.073264875E0,4.558021545E-1,3.069816284E0,8.258925476E0,8.822776073E0
8.083206875E0,6.509962463E-1,3.397784271E0,7.802674255E0,8.535248069E0
8.093148875E0,5.560935974E-1,3.832929382E0,7.713759155E0,8.631492805E0
8.103090875E0,3.101550293E-1,4.202660522E0,8.038433990E0,9.076065922E0
8.113032875E0,-6.137237549E-3,4.282145233E0,8.594377899E0,9.602090238E0
8.122974875E0,-2.392025757E-1,4.245022430E0,9.006770325E0,9.959886796E0
8.132916875E0,-4.191284180E-1,4.114344177E0,9.015901337E0,9.919172019E0
8.142858875E0,-6.807843018E-1,4.125720520E0,8.777147827E0,9.722312536E0
8.152800875E0,-9.509724426E-1,4.026027832E0,8.626111908E0,9.566768281E0
8.162742875E0,-1.082249451E0,3.670517120E0,8.508905640E0,9.329814306E0
8.172684875E0,-1.278191986E0,3.436254272E0,8.834478607E0,9.565021194E0
8.182626875E0,-1.435814209E0,3.351231079E0,9.377698975E0,1.006148847E1
8.192568875E0,-1.749561768E0,3.285817108E0,9.795180817E0,1.047869876E1
8.202510875E0,-1.754202118E0,3.093167725E0,9.980196075E0,1.059477349E1
8.212452875E0,-1.635349274E0,3.259771271E0,1.002210892E1,1.066504304E1
8.222394875E0,-1.437161407E0,3.293900299E0,9.812544708E0,1.044993999E1
8.232336875E0,-1.158291321E0,3.276536407E0,9.333241425E0,9.959253240E0
8.242278875E0,-8.861572266E-1,3.494034119E0,8.850345612E0,9.556263208E0
8.252219875E0,-5.897735596E-1,3.746259613E0,8.443042603E0,9.255661096E0
8.262161875E0,-3.715274048E-1,3.952380981E0,8.094716949E0,9.015752355E0
8.272103875E0,-2.353106689E-1,4.057462463E0,7.841892700E0,8.832533831E0
8.282045875E0,-1.426533508E-1,4.100722504E0,7.755971375E0,8.774472462E0
8.291987875E0,-7.694000244E-2,4.120631104E0,7.787256317E0,8.810611863E0
8.301929875E0,-1.794767761E-1,4.196972351E0,7.792794800E0,8.852933956E0
8.311871875E0,-3.444337463E-1,4.332141266E0,7.881859589E0,9.000544046E0
8.321813875E0,-5.755531311E-1,4.494852905E0,7.903564453E0,9.110504657E0
8.331755875E0,-7.848179626E-1,4.632117462E0,7.854167175E0,9.152070445E0
8.341697875E0,-9.574090576E-1,4.644841003E0,7.875872040E0,9.193505340E0
8.351639875E0,-1.068178711E0,4.611310730E0,7.853269043E0,9.169461656E0
8.361581875E0,-1.110839996E0,4.586312714E0,7.753875732E0,9.076938839E0
8.371523875E0,-1.146465912E0,4.480333099E0,7.903265076E0,9.156930033E0
8.381465875E0,-1.042731628E0,4.401147766E0,8.006250916E0,9.195512201E0
8.391407875E0,-9.749226379E-1,4.240382080E0,8.103099518E0,9.197365717E0
8.401349875E0,-9.788145447E-1,4.061354370E0,8.333620148E0,9.322118965E0
8.411291875E0,-9.846524048E-1,3.960913239E0,8.637937317E0,9.553655590E0
8.421233875E0,-9.916877747E-1,3.802841949E0,9.106163635E0,9.918027409E0
8.431175875E0,-8.687933350E-1,3.748355255E0,9.457632751E0,1.021037640E1
8.441117875E0,-7.771838379E-1,3.760030975E0,9.689799957E0,1.042276695E1
8.451059875E0,-7.848179626E-1,3.783532104E0,9.949360199E0,1.067336980E1
8.461001875E0,-8.337661743E-1,3.798051910E0,1.018931122E1,1.090607296E1
8.470943875E0,-9.011260986E-1,3.786525879E0,1.031145721E1,1.102161315E1
8.480885875E0,-9.512718201E-1,3.760779419E0,1.031954041E1,1.102457682E1
8.490827875E0,-7.906558228E-1,3.909719696E0,1.016072067E1,1.091564425E1
8.500769875E0,-3.845503235E-1,4.406686249E0,9.768236847E0,1.072311586E1
8.510711875E0,-8.427474976E-2,4.941224670E0,9.290580139E0,1.052319737E1
8.520653875E0,-1.544787598E-1,5.127736816E0,8.934770050E0,1.030279886E1
8.530595875E0,-6.712042236E-1,4.910987549E0,8.721164246E0,1.003130199E1
8.540537875E0,-1.294957123E0,4.455634460E0,8.749305725E0,9.903531848E0
8.550479875E0,-1.695823517E0,4.164190521E0,8.934470673E0,1.000205310E1
8.560421875E0,-1.838327179E0,4.002377014E0,9.303752747E0,1.029360402E1
8.570363875E0,-1.908082123E0,3.648961945E0,9.722881165E0,1.055888814E1
8.580305875E0,-1.931283875E0,3.135080566E0,9.986932068E0,1.064412513E1
8.590247875E0,-1.746418304E0,2.738255768E0,1.011207184E1,1.062082946E1
8.600189875E0,-1.357527008E0,2.573897552E0,1.003857468E1,1.045183284E1
8.610131875E0,-9.312135315E-1,2.681673431E0,9.778565369E0,1.018228224E1
8.620073875E0,-7.146139526E-1,2.887196045E0,9.501491547E0,9.956149643E0
8.630015875E0,-5.682183838E-1,3.138673096E0,9.393116913E0,9.919918663E0
8.639957875E0,-5.330415344E-1,3.239114227E0,9.365274811E0,9.923928987E0
8.649899875E0,-5.667214966E-1,3.117566986E0,9.322314148E0,9.846112849E0
8.659841875E0,-7.006929016E-1,2.850372620E0,9.380543060E0,9.829047905E0
8.669783875E0,-9.125024414E-1,2.586172028E0,9.602232056E0,9.986180797E0
8.679725875E0,-1.226100311E0,2.387535095E0,1.000249969E1,1.035633362E1
8.689667875E0,-1.613045654E0,2.356848907E0,1.030112869E1,1.068971026E1
8.699609875E0,-1.988315277E0,2.513872375E0,1.036519547E1,1.084943450E1
8.709551875E0,-2.263443146E0,2.785407715E0,1.015967285E1,1.077499993E1
8.719492875E0,-2.456691284E0,3.058889008E0,9.778715057E0,1.053638468E1
8.729434875E0,-2.608026581E0,3.262315979E0,9.471703491E0,1.035169915E1
8.739376875E0,-2.584525452E0,3.381617889E0,9.338779907E0,1.026293922E1
8.749318875E0,-2.381996613E0,3.426075439E0,9.174122314E0,1.007851284E1
8.759260875E0,-2.211201782E0,3.356470184E0,8.915011139E0,9.779198793E0
8.769202875E0,-1.956431580E0,3.259920959E0,8.719367981E0,9.512207271E0
8.779144875E0,-1.661844177E0,3.214265900E0,8.660989380E0,9.386477954E0
8.789086875E0,-1.328337708E0,3.134481812E0,8.541837158E0,9.195240037E0
8.799028875E0,-1.037342834E0,2.988086243E0,8.403674469E0,8.979225141E0
8.808970875E0,-8.631051636E-1,2.938688965E0,8.240364075E0,8.791157116E0
8.818912875E0,-7.538323975E-1,3.004252625E0,8.064928894E0,8.639263579E0
8.828854875E0,-7.608677673E-1,3.141068115E0,7.944728851E0,8.576942648E0
8.838796875E0,-8.494834900E-1,3.300785980E0,7.872279510E0,8.578437794E0
8.848738875E0,-1.013542328E0,3.417692871E0,7.786956940E0,8.564145666E0
8.858680875E0,-1.176852722E0,3.528761902E0,7.740852814E0,8.588244592E0
8.868622875E0,-1.265767822E0,3.644171906E0,7.800279236E0,8.702098208E0
8.878564875E0,-1.312770081E0,3.666774902E0,7.872429199E0,8.783151198E0
8.888506875E0,-1.346000977E0,3.574716339E0,8.054300995E0,8.914150551E0
8.898448875E0,-1.431622925E0,3.544928284E0,8.343349915E0,9.177556784E0
8.908390875E0,-1.433119812E0,3.588487701E0,8.709488525E0,9.528182762E0
8.918332875E0,-1.375639343E0,3.643273773E0,9.109756165E0,9.907244055E0
8.928274500E0,-1.237027588E0,3.639830933E0,9.415270844E0,1.016985406E1
8.938216500E0,-1.185684357E0,3.625311127E0,9.622589722E0,1.035098841E1
8.948158500E0,-1.221310272E0,3.669020233E0,9.735904083E0,1.047574038E1
8.958100500E0,-1.298250275E0,3.723656616E0,9.713899841E0,1.048384102E1
8.968042500E0,-1.363963623E0,3.736829224E0,9.685309296E0,1.047041095E1
8.977984500E0,-1.383273468E0,3.755091248E0,9.615404663E0,1.041490099E1
8.987926500E0,-1.369202728E0,3.742667084E0,9.525292053E0,1.032537949E1
8.997868500E0,-1.287322998E0,3.741319885E0,9.433383179E0,1.022953534E1
9.007810500E0,-1.149609375E0,3.766317902E0,9.343719635E0,1.013961779E1
9.017752500E0,-1.061742096E0,3.719914398E0,9.223070526E0,1.000150435E1
9.027694500E0,-1.036744080E0,3.662433929E0,9.121431885E0,9.883763464E0
9.037636500E0,-1.013392639E0,3.653003540E0,9.055419159E0,9.816924959E0
9.047578500E0,-9.228309631E-1,3.660937042E0,8.958121490E0,9.721214824E0
9.057520500E0,-8.072712708E-1,3.691024475E0,8.891060944E0,9.660554502E0
9.067462500E0,-6.557862854E-1,3.825295258E0,8.808582458E0,9.625698125E0
9.077404500E0,-4.981640625E-1,4.188290405E0,8.675958252E0,9.646874911E0
9.087346500E0,-4.528083801E-1,4.643493805E0,8.527467041E0,9.720327375E0
9.097288500E0,-5.652246094E-1,4.938679962E0,8.369844818E0,9.734697782E0
9.107230500E0,-8.726852417E-1,5.047803040E0,8.372539215E0,9.815360817E0
9.117172500E0,-1.243763580E0,5.001698914E0,8.510851593E0,9.949800737E0
9.127114500E0,-1.462608490E0,4.749922485E0,8.838819580E0,1.014030171E1
9.137056500E0,-1.361867981E0,4.208348694E0,9.500593414E0,1.047979763E1
9.146998500E0,-1.191073151E0,3.583847351E0,1.038315811E1,1.104864650E1
9.156940500E0,-1.080602875E0,3.119662628E0,1.114567245E1,1.162437147E1
9.166882500E0,-1.011446686E0,2.798580322E0,1.155986115E1,1.193672760E1
9.176824500E0,-1.039139099E0,2.673440552E0,1.153650970E1,1.188773110E1
9.186766500E0,-8.428971863E-1,2.467319183E0,1.105496109E1,1.135827031E1
9.196708500E0,-3.288661194E-1,2.454296265E0,1.024155258E1,1.053665613E1
9.206650500E0,2.353106689E-1,2.761158142E0,9.348509674E0,9.750589650E0
9.216592500E0,5.486091614E-1,3.160827026E0,8.586294708E0,9.166038202E0
9.226533500E0,6.090834045E-1,3.521726532E0,8.195607147E0,8.941002006E0
9.236475500E0,5.287005615E-1,3.776796112E0,8.188122711E0,9.032666643E0
9.246417500E0,4.230203247E-1,3.894451447E0,8.523425446E0,9.380537276E0
9.256359500E0,2.589614868E-1,3.915258179E0,8.968000946E0,9.788837961E0
9.266301500E0,3.263214111E-2,3.818708954E0,9.313332825E0,1.006587161E1
9.276243500E0,-2.255809021E-1,3.653901672E0,9.382788391E0,1.007167326E1
9.286185500E0,-5.620811462E-1,3.458258514E0,9.362730103E0,9.996809598E0
9.296127500E0,-8.604107666E-1,3.288960571E0,9.441017303E0,1.003445943E1
9.306069500E0,-1.111588440E0,3.092419281E0,9.702523499E0,1.024390785E1
9.316011500E0,-1.093027039E0,2.878214722E0,1.007914032E1,1.053887554E1
9.325953500E0,-7.129673767E-1,2.882705383E0,1.038630157E1,1.080247996E1
9.335895500E0,-5.367837524E-1,2.910098419E0,1.042746597E1,1.083922766E1
9.345837500E0,-5.381309509E-1,3.063679047E0,1.009291168E1,1.056137209E1
9.355779500E0,-4.424798584E-1,3.169209595E0,9.551637268E0,1.007340322E1
9.365721500E0,-3.662882996E-1,3.192411346E0,9.098529510E0,9.649295134E0
9.375663500E0,-3.808081055E-1,3.364553375E0,8.765921173E0,9.397159584E0
9.385605500E0,-4.093986511E-1,3.484603729E0,8.496032410E0,9.191987658E0
9.395547500E0,-4.549040222E-1,3.626209259E0,8.242310028E0,9.016207953E0
9.405489500E0,-4.221221924E-1,3.754791870E0,7.842790833E0,8.705516480E0
9.415431500E0,-4.315525818E-1,3.891008606E0,7.284900970E0,8.270185473E0
9.425373500E0,-4.105961609E-1,3.914809113E0,6.988217926E0,8.020567896E0
9.435315500E0,-5.523513794E-1,3.899241486E0,7.031178589E0,8.058948353E0
9.445257500E0,-7.000941467E-1,4.309687958E0,7.097790070E0,8.333196624E0
9.455199500E0,-9.419911194E-1,4.491709442E0,7.098239136E0,8.452680037E0
9.465141500E0,-1.114282837E0,4.536316681E0,7.221283264E0,8.600391110E0
9.475083500E0,-1.197958832E0,4.539909210E0,7.390581207E0,8.755944928E0
9.485025500E0,-1.214274902E0,4.467609558E0,7.641758881E0,8.934790288E0
9.494967500E0,-1.149759064E0,4.346361694E0,7.997868347E0,9.174895312E0
9.504909500E0,-1.010847931E0,4.220473480E0,8.433013458E0,9.484193478E0
9.514851500E0,-9.824070740E-1,4.067790985E0,8.841214600E0,9.781570567E0
9.524793500E0,-9.967771912E-1,3.946393433E0,9.267228699E0,1.012171496E1
9.534735500E0,-1.031804352E0,3.810925140E0,9.672286377E0,1.044705195E1
9.544677500E0,-1.045276337E0,3.691922607E0,9.958491211E0,1.067213392E1
9.554619500E0,-1.005010071E0,3.601809998E0,1.015458344E1,1.082121274E1
9.564561500E0,-9.560618591E-1,3.556903381E0,1.020383102E1,1.084821568E1
9.574503500E0,-9.226812744E-1,3.584595795E0,1.015682877E1,1.081026541E1
9.584445500E0,-9.470805359E-1,3.638932800E0,1.002884491E1,1.071057999E1
9.594387500E0,-8.925938416E-1,3.753594360E0,9.841883698E0,1.057113377E1
9.604329500E0,-8.693920898E-1,3.838767242E0,9.663604431E0,1.043442510E1
9.614271500E0,-9.217831421E-1,3.840114441E0,9.597741394E0,1.037847787E1
9.624213500E0,-9.759704590E-1,3.876488800E0,9.585466919E0,1.038560830E1
9.634155500E0,-9.879455566E-1,3.895948334E0,9.564660187E0,1.037483370E1
9.644097500E0,-9.017248535E-1,3.851939850E0,9.507030029E0,1.029728937E1
9.654039500E0,-7.382647705E-1,3.797453156E0,9.397906952E0,1.016298875E1
9.663981500E0,-5.578898621E-1,3.750301208E0,9.203610992E0,9.954017056E0
9.673923500E0,-4.364923096E-1,3.757486267E0,9.034313049E0,9.794286133E0
9.683865500E0,-3.839515686E-1,3.787723389E0,8.915759583E0,9.694587986E0
9.693807500E0,-3.255729675E-1,3.845802612E0,8.836574249E0,9.642678049E0
9.703749500E0,-2.689906311E-1,3.952830048E0,8.794661407E0,9.645895014E0
9.713691500E0,-1.344204712E-1,4.196074219E0,8.725505219E0,9.682951463E0
9.723633500E0,-3.278182983E-2,4.602329407E0,8.603808289E0,9.757460104E0
9.733575500E0,-1.437011719E-1,4.943470001E0,8.529712372E0,9.859743345E0
9.743517500E0,-6.718029785E-1,5.009782104E0,8.593479767E0,9.969810955E0
9.753459500E0,-1.529369659E0,4.751718750E0,8.767268372E0,1.008874607E1
9.763401500E0,-2.338586884E0,4.415368195E0,9.081914063E0,1.036559829E1
9.773342500E0,-2.892884216E0,4.010011139E0,9.587263184E0,1.078724171E1
9.783285500E0,-3.064277802E0,3.432661743E0,1.015757721E1,1.115120352E1
9.793226500E0,-2.936443634E0,2.918630676E0,1.061038559E1,1.138952978E1
9.803168500E0,-2.616558838E0,2.696492615E0,1.076800781E1,1.140471152E1
9.813110500E0,-2.223326569E0,2.590063934E0,1.056323364E1,1.110105928E1
9.823052500E0,-1.845063171E0,2.576591949E0,1.015024246E1,1.063346163E1
9.832994500E0,-1.556163940E0,2.726729736E0,9.675878906E0,1.017247924E1
9.842936500E0,-1.330133972E0,2.923570404E0,9.303153992E0,9.842011709E0
9.852878500E0,-1.181792450E0,3.076701965E0,8.974587250E0,9.560645621E0
9.862820500E0,-1.068328400E0,3.318898315E0,8.663983154E0,9.339219223E0
9.872762500E0,-9.713301086E-1,3.541934509E0,8.409512329E0,9.176528748E0
9.882704500E0,-1.038240967E0,3.692221985E0,8.289461975E0,9.133763043E0
9.892646500E0,-1.239721985E0,3.786825256E0,8.290210419E0,9.198072891E0
9.902588500E0,-1.537901917E0,3.901337128E0,8.349786530E0,9.343688179E0
9.912530500E0,-1.785187683E0,3.923041992E0,8.494086456E0,9.525054239E0
9.922472500E0,-1.907932434E0,3.855382690E0,8.611891479E0,9.626466471E0
9.932414916E0,-1.872456207E0,3.742517395E0,8.599766693E0,9.563917392E0
9.942356917E0,-1.683549042E0,3.416944427E0,8.587492218E0,9.394406271E0
9.952298916E0,-1.654808807E0,3.323688354E0,8.391699371E0,9.176378088E0
9.962240916E0,-1.650018768E0,3.331921234E0,8.374335480E0,9.162628213E0
9.972182916E0,-1.455124054E0,3.344495087E0,8.756640472E0,9.485872957E0
9.982124916E0,-1.330583038E0,3.244203644E0,9.082213440E0,9.735600109E0
9.992066917E0,-1.181942139E0,3.052452393E0,9.219477997E0,9.783313721E0
1.000200892E1,-9.762698364E-1,2.909349976E0,9.197773132E0,9.696208056E0
1.001195092E1,-7.578739929E-1,3.010389862E0,9.242679749E0,9.750074310E0
1.002189292E1,-6.653663635E-1,3.082090759E0,9.190887451E0,9.716707672E0
1.003183492E1,-7.170089722E-1,3.178639984E0,9.013805695E0,9.584703809E0
1.004177692E1,-8.437953186E-1,3.397784271E0,8.789871368E0,9.461435788E0
1.005171892E1,-9.538165283E-1,3.598217468E0,8.488248596E0,9.268619053E0
1.006166092E1,-1.023272095E0,3.648363190E0,8.243357849E0,9.072518304E0
1.007160292E1,-1.086141357E0,3.696413269E0,8.089627533E0,8.960203554E0
1.008154492E1,-1.213676147E0,3.822002106E0,8.008346558E0,8.956244999E0
1.009148692E1,-1.388063507E0,3.966900787E0,8.001311188E0,9.037920274E0
1.010142892E1,-1.564845886E0,4.079017639E0,8.036338348E0,9.147123132E0
1.011137092E1,-1.705852661E0,4.147724762E0,8.040379944E0,9.206588057E0
1.012131292E1,-1.750459900E0,4.160448303E0,8.084837494E0,9.259483638E0
1.013125492E1,-1.738035736E0,4.161047058E0,8.172555084E0,9.334116854E0
1.014119692E1,-1.754202118E0,4.140090637E0,8.308472443E0,9.447131305E0
1.015113892E1,-1.732347565E0,4.097129974E0,8.462352448E0,9.560277771E0
1.016108092E1,-1.669029236E0,4.048780518E0,8.584348755E0,9.636873239E0
1.017102292E1,-1.580114136E0,3.940256195E0,8.726103973E0,9.703982178E0
1.018096492E1,-1.444196777E0,3.872746582E0,8.919651489E0,9.830770728E0
1.019090692E1,-1.307830353E0,3.842509460E0,9.082812195E0,9.948506247E0
1.020084892E1,-1.156495056E0,3.809727631E0,9.147028656E0,9.975953021E0
1.021079092E1,-9.716294861E-1,3.834426270E0,9.190438385E0,1.000555078E1
1.022073292E1,-8.228388977E-1,3.851191406E0,9.226812744E0,1.003208914E1
1.023067492E1,-6.586303711E-1,3.825594635E0,9.237740021E0,1.002022001E1
1.024061692E1,-5.412744141E-1,3.786675568E0,9.235195312E0,9.996035329E0
1.025055892E1,-4.698728943E-1,3.787873077E0,9.279952240E0,1.003425516E1
1.026050092E1,-4.323010254E-1,3.831282806E0,9.330846405E0,1.009605402E1
1.027044292E1,-4.625381470E-1,3.868255920E0,9.336235199E0,1.011645358E1
1.028038492E1,-5.113366699E-1,3.874542847E0,9.304650879E0,1.009207984E1
1.029032692E1,-5.319937134E-1,3.887116699E0,9.190288696E0,9.992702330E0
1.030026892E1,-5.143304443E-1,3.845952301E0,9.076525269E0,9.871129411E0
1.031021092E1,-4.861889648E-1,3.807182922E0,9.005722504E0,9.789487184E0
1.032015292E1,-3.905378723E-1,3.826043701E0,9.029672699E0,9.814587066E0
1.033009492E1,-2.703378296E-1,3.934867401E0,9.044342194E0,9.866934160E0
1.034003692E1,-1.315763855E-1,4.197122040E0,8.992699585E0,9.924806879E0
1.034997892E1,-3.682342529E-2,4.575535126E0,8.762927399E0,9.885634742E0
1.035991992E1,-1.100212097E-1,4.938979340E0,8.427025909E0,9.768335952E0
1.036986192E1,-5.830375671E-1,5.018014984E0,8.078700256E0,9.528158532E0
1.037980392E1,-1.323248291E0,4.747228088E0,7.778125305E0,9.207952749E0
1.038974592E1,-2.038610687E0,4.253704376E0,7.798333282E0,9.113941872E0
1.039968792E1,-2.503394165E0,3.748055878E0,8.651858368E0,9.755488631E0
1.040962992E1,-2.385589142E0,3.233126678E0,1.015967285E1,1.092534192E1
1.041957192E1,-1.947150879E0,2.738106079E0,1.130509094E1,1.179379933E1
1.042951392E1,-1.434766388E0,2.427501984E0,1.167811523E1,1.201372947E1
1.043945592E1,-6.339317322E-1,2.068548431E0,1.106933121E1,1.127877899E1
1.044939792E1,1.839674377E-1,1.644180908E0,1.040830582E1,1.053897551E1
1.045933992E1,4.061054993E-1,2.052681427E0,9.939031677E0,1.015690767E1
1.046928192E1,5.387297058E-1,2.595752106E0,9.224717102E0,9.598102120E0
1.047922392E1,7.580236816E-1,3.053200836E0,8.496182098E0,9.059897654E0
1.048916592E1,9.855505371E-1,3.313958588E0,8.019124146E0,8.732696230E0
1.049910792E1,1.130598907E0,3.476520538E0,7.871381378E0,8.678887817E0
1.050904992E1,1.329684906E0,3.495830383E0,8.112679596E0,8.933334330E0
1.051899192E1,1.469494171E0,3.456911316E0,8.574768677E0,9.361426538E0
1.052893392E1,1.522633667E0,3.401676178E0,9.023385773E0,9.762750888E0
1.053887592E1,1.447789307E0,3.329526215E0,9.287137299E0,9.971597560E0
1.054881792E1,1.242266693E0,3.299738159E0,9.374106445E0,1.001525687E1
1.055875992E1,8.675958252E-1,3.237617340E0,9.453142090E0,1.002979481E1
1.056870192E1,3.520678711E-1,3.094365234E0,9.702373810E0,1.018995120E1
1.057864392E1,5.089416504E-2,3.102897491E0,1.034393967E1,1.079942827E1
1.058858592E1,-1.014889526E-1,3.067421265E0,1.085976700E1,1.128511907E1
1.059852792E1,-8.981323242E-2,2.967728577E0,1.090437424E1,1.130136526E1
1.060846992E1,9.729766846E-3,3.015479279E0,1.064032333E1,1.105937117E1
1.061841192E1,1.869612122E-1,3.153192902E0,1.004935226E1,1.053409042E1
1.062835392E1,2.477348328E-1,3.110381927E0,9.750274200E0,1.023736759E1
1.063829592E1,2.525248718E-1,3.007695465E0,9.609417114E0,1.007228366E1
1.064823792E1,2.745291138E-1,3.033741302E0,9.408085785E0,9.888934759E0
1.065817992E1,3.080593872E-1,3.201093292E0,9.360185394E0,9.897220290E0
1.066812192E1,4.439767456E-1,3.381019135E0,9.339678040E0,9.942735621E0
1.067806392E1,5.797444153E-1,3.514990540E0,9.113348694E0,9.784906055E0
1.068800592E1,6.227050781E-1,3.608096924E0,8.716074829E0,9.453892608E0
1.069794792E1,6.274951172E-1,3.668720856E0,8.395890656E0,9.183912170E0
1.070788992E1,6.233038330E-1,3.764821014E0,8.207282867E0,9.051070489E0
1.071783192E1,5.915698242E-1,3.872297516E0,8.145760803E0,9.038698024E0
1.072777392E1,5.587879944E-1,4.008514252E0,8.142767029E0,9.093133971E0
1.073771592E1,5.225633240E-1,4.106410675E0,8.158484344E0,9.148581740E0
1.074765792E1,4.424798584E-1,4.171375580E0,8.297545166E0,9.297602833E0
1.075759992E1,3.180885315E-1,4.197720795E0,8.472980347E0,9.461154060E0
1.076754192E1,1.913021851E-1,4.208498383E0,8.676557007E0,9.645242177E0
1.077748392E1,1.309776306E-1,4.166286163E0,8.894653473E0,9.822930110E0
1.078742592E1,7.798782349E-2,4.169579315E0,9.117090912E0,1.002560823E1
1.079736792E1,-7.484436035E-3,4.103566589E0,9.316176910E0,1.017990506E1
1.080730992E1,-6.975494385E-2,4.036206665E0,9.389823761E0,1.022079352E1
1.081725192E1,-1.025367737E-1,4.019890594E0,9.398056641E0,1.022220636E1
1.082719392E1,-1.169068909E-1,4.006418610E0,9.332043915E0,1.015638228E1
1.083713592E1,-1.314266968E-1,4.053720245E0,9.085356903E0,9.949554305E0
1.084707792E1,-1.640588379E-1,4.128115540E0,8.805139618E0,9.726188200E0
1.085701992E1,-2.173480225E-1,4.217030640E0,8.592731323E0,9.574216374E0
1.086696192E1,-2.516267395E-1,4.310885468E0,8.444090424E0,9.484182232E0
1.087690392E1,-2.683918762E-1,4.369264069E0,8.388106842E0,9.461650971E0
1.088684592E1,-2.439926147E-1,4.458478546E0,8.381370850E0,9.496575207E0
1.089678792E1,-2.269281006E-1,4.468358002E0,8.418044586E0,9.533162867E0
1.090672992E1,-2.104623413E-1,4.417763214E0,8.450227661E0,9.537676538E0
1.091667192E1,-1.929487610E-1,4.371210022E0,8.456813965E0,9.521680982E0
1.092661375E1,-1.657054138E-1,4.359983368E0,8.479267273E0,9.535978541E0
1.093655475E1,-9.131011963E-2,4.371060333E0,8.481961670E0,9.542440974E0
1.094649775E1,-2.409988403E-2,4.393813019E0,8.458310852E0,9.531484466E0
1.095643975E1,3.158432007E-2,4.426894226E0,8.418493652E0,9.511541696E0
1.096638075E1,2.439926147E-2,4.458628235E0,8.460256805E0,9.563258141E0
1.097632275E1,-2.963836670E-2,4.512965240E0,8.548573151E0,9.666738675E0
1.098626475E1,-1.239422607E-1,4.538562012E0,8.653055878E0,9.771861790E0
1.099620675E1,-2.246827698E-1,4.536765747E0,8.774902496E0,9.880872411E0
1.100614875E1,-2.981799316E-1,4.581522675E0,8.856183472E0,9.975532416E0
1.101609075E1,-1.580712891E-1,4.762196960E0,8.851842499E0,1.005279175E1
1.102603275E1,1.184037781E-1,5.139861603E0,8.695417786E0,1.010160815E1
1.103597475E1,1.854643250E-1,5.390739899E0,8.558153229E0,1.011614849E1
1.104591675E1,-8.412506104E-2,5.281916199E0,8.604856110E0,1.009699284E1
1.105585875E1,-6.415658569E-1,4.934488678E0,8.970994720E0,1.025863205E1
1.106580075E1,-1.162332916E0,4.674329681E0,9.671088867E0,1.080418140E1
1.107574275E1,-1.537452850E0,4.469256134E0,1.039588165E1,1.141982342E1
1.108568475E1,-1.815125427E0,4.152664490E0,1.099104401E1,1.188874893E1
1.109562675E1,-1.913470917E0,3.766467590E0,1.127724884E1,1.204259069E1
1.110556875E1,-1.770069122E0,3.409310303E0,1.111917755E1,1.176404058E1
1.111551075E1,-1.601070557E0,2.981799316E0,1.091560089E1,1.142824995E1
1.112545275E1,-1.419348450E0,2.601440277E0,1.089554260E1,1.129136352E1
1.113539475E1,-1.216370544E0,2.412982178E0,1.098924774E1,1.131660754E1
1.114533675E1,-9.382489014E-1,2.503992920E0,1.091994186E1,1.124257185E1
1.115527875E1,-6.370751953E-1,2.776725769E0,1.052191956E1,1.090077346E1
1.116522075E1,-4.805007935E-1,2.994223480E0,9.959389343E0,1.041084489E1
1.117516275E1,-4.980143738E-1,3.023712158E0,9.461674347E0,9.945558555E0
1.118510475E1,-5.348377991E-1,3.026256866E0,9.171876984E0,9.673035175E0
1.119504675E1,-5.062472534E-1,3.038531342E0,9.048383789E0,9.558358028E0
1.120498875E1,-5.417234802E-1,3.047812042E0,8.968300323E0,9.487519869E0
1.121493075E1,-5.433700562E-1,3.076701965E0,8.824599152E0,9.361351195E0
1.122487275E1,-5.367837524E-1,3.081641693E0,8.600964203E0,9.152116561E0
1.123481475E1,-4.984634399E-1,3.173700256E0,8.337062988E0,8.934621334E0
1.124475675E1,-5.032534790E-1,3.320395203E0,8.055797882E0,8.727781384E0
1.125469875E1,-5.689668274E-1,3.483406219E0,7.826175385E0,8.585270135E0
1.126464075E1,-6.873706055E-1,3.607348480E0,7.799680481E0,8.620931331E0
1.127458275E1,-7.688012695E-1,3.714076538E0,7.953560486E0,8.811614172E0
1.128452475E1,-7.417076111E-1,3.781137085E0,8.183632050E0,9.045383428E0
1.129446675E1,-7.168592834E-1,3.761078796E0,8.323441315E0,9.161838040E0
1.130440875E1,-6.453080750E-1,3.733087006E0,8.412506104E0,9.226192066E0
1.131435075E1,-5.483097839E-1,3.702400818E0,8.473279724E0,9.263092611E0
1.132429275E1,-4.508624268E-1,3.716321869E0,8.491691437E0,9.280255849E0
1.133423475E1,-4.064048767E-1,3.728296967E0,8.478967896E0,9.271367740E0
1.134417675E1,-4.543052673E-1,3.783981171E0,8.431666260E0,9.252994255E0
1.135411875E1,-6.155200195E-1,3.868405609E0,8.374185791E0,9.245021066E0
1.136406075E1,-7.557783508E-1,3.981270905E0,8.300239563E0,9.236649595E0
1.137400275E1,-9.372010803E-1,4.090244293E0,8.252488861E0,9.258078453E0
1.138394475E1,-1.047072601E0,4.219126282E0,8.182883606E0,9.265903719E0
1.139388675E1,-1.101409607E0,4.348307648E0,8.063581696E0,9.227254862E0
1.140382875E1,-1.212029572E0,4.425846405E0,7.969577179E0,9.196265138E0
1.141377075E1,-1.257834320E0,4.499792633E0,7.912246399E0,9.188793392E0
1.142371275E1,-1.236877899E0,4.580175476E0,7.876321106E0,9.194797904E0
1.143365475E1,-1.180594940E0,4.643793182E0,7.879314880E0,9.221834011E0
1.144359675E1,-1.153800659E0,4.636757812E0,7.938441925E0,9.265508036E0
1.145353875E1,-1.124012604E0,4.628375244E0,8.028404846E0,9.334910075E0
1.146348075E1,-1.115031281E0,4.598138123E0,8.123307495E0,9.400760268E0
1.147342275E1,-1.167272644E0,4.619543610E0,8.244255981E0,9.522104036E0
1.148336475E1,-1.258882141E0,4.616699524E0,8.375532990E0,9.646152165E0
1.149330675E1,-1.326541443E0,4.574038239E0,8.550369415E0,9.787254730E0
1.150324875E1,-1.393003235E0,4.522994385E0,8.722810822E0,9.923979285E0
1.151319075E1,-1.395547943E0,4.449197845E0,8.799152069E0,9.958312742E0
1.152313175E1,-1.324894867E0,4.386777649E0,8.838969269E0,9.956231329E0
1.153307475E1,-1.249601440E0,4.308340759E0,8.770112457E0,9.850795723E0
1.154301575E1,-1.161584473E0,4.252955933E0,8.666228485E0,9.723190259E0
1.155295775E1,-1.087638245E0,4.207600250E0,8.633296967E0,9.665437048E0
1.156289975E1,-1.127006378E0,4.132755890E0,8.632249146E0,9.636676810E0
1.157284175E1,-1.065783691E0,4.067042542E0,8.628506927E0,9.598325985E0
1.158278375E1,-9.086105347E-1,4.112697601E0,8.972192230E0,9.911613798E0
1.159272575E1,-1.084644470E0,4.051325226E0,9.235345001E0,1.014304131E1
1.160266775E1,-1.023870850E0,4.102518768E0,9.482780457E0,1.038277886E1
1.161260975E1,-7.747888184E-1,4.123774567E0,9.375303955E0,1.027142340E1
1.162255175E1,-4.525090027E-1,4.265679474E0,8.856183472E0,9.840364396E0
1.163249375E1,-6.825805664E-2,4.639003143E0,8.260272675E0,9.474023115E0
1.164243575E1,2.267784119E-1,4.994962921E0,7.875273285E0,9.328505365E0
1.165237775E1,1.248403931E-1,5.030588837E0,7.890840912E0,9.358834300E0
1.166231975E1,-2.595602417E-1,4.799619141E0,8.489296417E0,9.755607058E0
1.167226175E1,-8.265811157E-1,4.426894226E0,9.427245941E0,1.044765978E1
1.168220375E1,-1.426533508E0,4.109554138E0,1.031504974E1,1.119480613E1
1.169214575E1,-1.900897064E0,3.757935333E0,1.130314499E1,1.206219608E1
1.170208775E1,-2.124681702E0,3.493585052E0,1.194501022E1,1.262547734E1
1.171202975E1,-2.047741699E0,3.197650452E0,1.168694687E1,1.228832542E1
1.172197175E1,-1.761686554E0,2.908302155E0,1.064032333E1,1.117041815E1
1.173191375E1,-1.304537201E0,2.690804443E0,9.402397614E0,9.866474889E0
1.174185575E1,-8.454418945E-1,2.755619659E0,8.489595795E0,8.965570169E0
1.175179775E1,-6.833290100E-1,3.403023376E0,8.099656677E0,8.812034097E0
1.176173975E1,-2.513273621E-1,3.808081055E0,7.943980408E0,8.813141975E0
1.177168175E1,1.514849854E-1,3.645219727E0,7.887398071E0,8.690317767E0
1.178162375E1,-9.160949707E-2,3.846551056E0,8.382119293E0,9.223029392E0
1.179156575E1,-2.300715637E-1,4.025728455E0,9.142088928E0,9.991857309E0
1.180150775E1,-5.536985779E-1,3.780688019E0,1.002345612E1,1.072706188E1
1.181144975E1,-8.219407654E-1,3.676205292E0,1.062355820E1,1.127164854E1
1.182139175E1,-1.009800110E0,3.509601746E0,1.071756271E1,1.132268304E1
1.183133375E1,-1.116228790E0,3.337310028E0,1.063433578E1,1.120145984E1
1.184127575E1,-1.130898285E0,3.340752869E0,1.026535309E1,1.085435556E1
1.185121775E1,-1.152453461E0,3.297043762E0,9.749675446E0,1.035639019E1
1.186115975E1,-1.185534668E0,3.159180450E0,9.355095978E0,9.945035662E0
1.187110175E1,-1.197659454E0,2.994223480E0,9.217532043E0,9.765380658E0
1.188104375E1,-1.164428558E0,2.839145966E0,9.367669830E0,9.857478467E0
1.189098575E1,-1.098116455E0,2.754422150E0,9.534872131E0,9.985313600E0
1.190092775E1,-1.009351044E0,2.694696350E0,9.509574738E0,9.935400829E0
1.191086975E1,-9.862989807E-1,2.664309540E0,9.374405823E0,9.795448715E0
1.192081175E1,-9.300160217E-1,2.673590240E0,9.187893677E0,9.614073267E0
1.193075425E1,-7.756869507E-1,2.740201721E0,8.965605927E0,9.407044453E0
1.194069625E1,-5.406756592E-1,2.811453552E0,8.673263855E0,9.133570339E0
1.195063825E1,-3.538641357E-1,2.895877991E0,8.359366608E0,8.853831896E0
1.196058025E1,-2.297721863E-1,2.958597565E0,8.054750061E0,8.584002176E0
1.197052225E1,-1.892065430E-1,3.007994843E0,7.804320831E0,8.366077679E0
1.198046425E1,-2.095642090E-1,3.091221771E0,7.652985535E0,8.256376735E0
1.199040625E1,-2.784210205E-1,3.217559052E0,7.588619385E0,8.247263102E0
1.200034825E1,-3.942800903E-1,3.356769562E0,7.560627594E0,8.281693564E0
1.201029025E1,-5.730084229E-1,3.496429138E0,7.533234558E0,8.324841036E0
1.202023225E1,-7.430548096E-1,3.610042877E0,7.560777283E0,8.411295569E0
1.203017425E1,-8.744815063E-1,3.647465057E0,7.691455536E0,8.557289729E0
1.204011625E1,-9.530680847E-1,3.629053345E0,7.916138306E0,8.760343180E0
1.205005825E1,-9.740245056E-1,3.573369141E0,8.232580261E0,9.027351135E0
1.206000025E1,-9.581575012E-1,3.513793030E0,8.549620972E0,9.293052567E0
1.206994125E1,-9.219328308E-1,3.407064972E0,8.740773468E0,9.426514344E0
1.207988425E1,-8.827143860E-1,3.256029053E0,8.790619812E0,9.415726555E0
1.208982625E1,-8.214916992E-1,3.150199127E0,8.789272614E0,9.372828614E0
1.209976725E1,-8.114625549E-1,3.113525391E0,8.813522186E0,9.382466902E0
1.210970925E1,-8.131091309E-1,3.133583679E0,8.872948608E0,9.445089208E0
1.211965125E1,-8.174501038E-1,3.129242706E0,9.047335968E0,9.608052493E0
1.212959325E1,-8.854087830E-1,3.066373444E0,9.297316132E0,9.829887184E0
1.213953525E1,-9.454339600E-1,2.955454102E0,9.585616608E0,1.007534615E1
1.214947725E1,-1.052311707E0,2.859952698E0,9.887688446E0,1.034664545E1
1.215941925E1,-1.169817352E0,2.754122772E0,1.015338593E1,1.058512686E1
1.216936125E1,-1.305734711E0,2.705773315E0,1.034603531E1,1.077342095E1
1.217930325E1,-1.387165375E0,2.716401215E0,1.044872177E1,1.088479903E1
1.218924525E1,-1.420096893E0,2.711012421E0,1.037073395E1,1.081288057E1
1.219918725E1,-1.415755920E0,2.737806702E0,1.009830048E1,1.055820169E1
1.220912925E1,-1.238075409E0,2.943778381E0,9.645043030E0,1.015999591E1
1.221907125E1,-7.771838379E-1,3.432811432E0,9.109756165E0,9.766056851E0
1.222901325E1,-3.586541748E-1,3.871549072E0,8.661737823E0,9.494378714E0
1.223895525E1,-3.300636292E-1,4.005071411E0,8.568032684E0,9.463652735E0
1.224889725E1,-3.586541748E-1,3.872596893E0,8.714727631E0,9.543171233E0
1.225883925E1,-3.739224243E-1,3.597469025E0,8.978329468E0,9.679462867E0
1.226878125E1,-3.956272888E-1,3.184178467E0,9.430988159E0,9.961879899E0
1.227872325E1,-4.050576782E-1,2.716999969E0,9.987680511E0,1.035856759E1
1.228866525E1,-4.444258118E-1,2.246528320E0,1.045066772E1,1.069863822E1
1.229860725E1,-4.261637878E-1,1.756148071E0,1.079555054E1,1.094575639E1
1.230854925E1,-4.734654236E-1,1.335971832E0,1.102547241E1,1.111620583E1
1.231849125E1,-4.248165894E-1,1.111588440E0,1.108040817E1,1.114412595E1
1.232843325E1,-2.914439392E-1,1.056053925E0,1.103041214E1,1.108468229E1
1.233837525E1,-1.037342834E-1,1.130149841E0,1.081426163E1,1.087364953E1
1.234831725E1,4.460723877E-2,1.261726227E0,1.045560745E1,1.053155592E1
1.235825925E1,1.953437805E-1,1.358574829E0,1.014126114E1,1.023372182E1
1.236820125E1,3.613485718E-1,1.432820435E0,9.932445374E0,1.004176370E1
1.237814325E1,4.647834778E-1,1.520538025E0,9.822274475E0,9.950132433E0
1.238808525E1,4.941224670E-1,1.460961914E0,9.840985565E0,9.961102530E0
1.239802725E1,5.397775269E-1,1.333427124E0,1.006387207E1,1.016616490E1
1.240796925E1,6.123765564E-1,1.287023621E0,1.030591873E1,1.040400864E1
1.241791125E1,7.297325134E-1,1.298549652E0,1.036744080E1,1.047389944E1
1.242785325E1,7.818241882E-1,1.364562378E0,1.016566040E1,1.028658986E1
1.243779525E1,7.629634094E-1,1.506916351E0,9.783505096E0,9.928236602E0
1.244773725E1,6.321354675E-1,1.702409821E0,9.406738586E0,9.580424066E0
1.245767925E1,3.659889221E-1,1.863325195E0,9.074579315E0,9.271133610E0
1.246762125E1,6.152206421E-2,1.912123718E0,8.911119232E0,9.114167436E0
1.247756325E1,1.020877075E-1,2.066752167E0,9.031019897E0,9.265052985E0
1.248750525E1,2.630030823E-1,2.166444855E0,9.152267761E0,9.408860670E0
1.249744725E1,4.531077576E-1,2.072440338E0,9.251511383E0,9.491616220E0
1.250738925E1,7.542814636E-1,1.972747650E0,9.239835663E0,9.478145224E0
1.251733125E1,1.019529877E0,1.943258972E0,9.099277954E0,9.360157899E0
1.252727325E1,1.133892059E0,1.923050995E0,9.008416901E0,9.280916517E0
1.253721525E1,1.124461670E0,1.940414886E0,8.955277405E0,9.231826329E0
1.254715725E1,1.027313690E0,1.994901581E0,8.992400208E0,9.268131809E0
1.255709925E1,8.448431396E-1,2.074086914E0,9.097631378E0,9.369231193E0
1.256704125E1,6.457571411E-1,2.177222443E0,9.364226990E0,9.635665362E0
1.257698325E1,5.429209900E-1,2.259251862E0,9.603728943E0,9.880819388E0
1.258692525E1,4.810995483E-1,2.297721863E0,9.780361633E0,1.005815372E1
1.259686725E1,4.665797424E-1,2.251767426E0,9.852212219E0,1.011702717E1
1.260680825E1,4.504133606E-1,2.201472015E0,9.819879456E0,1.007369762E1
1.261675025E1,5.044509888E-1,2.163600769E0,9.724228363E0,9.974781017E0
1.262669225E1,6.162684631E-1,2.205214233E0,9.548793182E0,9.819481039E0
1.263663425E1,8.026309204E-1,2.280507660E0,9.386081543E0,9.692443361E0
1.264657625E1,9.722282410E-1,2.380350037E0,9.320966949E0,9.669111589E0
1.265651825E1,1.063837738E0,2.427352295E0,9.351653137E0,9.719938595E0
1.266646025E1,1.091230774E0,2.446961517E0,9.458231506E0,9.830389031E0
1.267640225E1,1.112187195E0,2.436034241E0,9.647587738E0,1.001235099E1
1.268634425E1,1.031055908E0,2.386636963E0,9.899064789E0,1.023477386E1
1.269628625E1,9.101074219E-1,2.383194122E0,1.011072464E1,1.042759140E1
1.270622825E1,8.458909607E-1,2.414928131E0,1.029903305E1,1.061213886E1
1.271617025E1,8.674461365E-1,2.365381165E0,1.043734543E1,1.073711649E1
1.272611225E1,8.521778870E-1,2.274969177E0,1.043510010E1,1.071414980E1
1.273605425E1,8.452922058E-1,2.239942017E0,1.031729507E1,1.059143224E1
1.274599625E1,8.348139954E-1,2.273023224E0,1.004950195E1,1.033711945E1
1.275593825E1,8.390052795E-1,2.328707428E0,9.742340698E0,1.005186602E1
1.276588025E1,7.762857056E-1,2.472558289E0,9.486372986E0,9.833993920E0
1.277582225E1,7.851173401E-1,2.741099854E0,9.282946014E0,9.710979577E0
1.278576425E1,9.325607300E-1,3.081042938E0,9.060658264E0,9.615509518E0
1.279570625E1,1.014440460E0,3.315754852E0,8.875193939E0,9.528503930E0
1.280564825E1,9.668394470E-1,3.450175323E0,8.869206390E0,9.565631724E0
1.281559025E1,8.545729065E-1,3.446133728E0,9.067094879E0,9.737471031E0
1.282553225E1,6.724017334E-1,3.333867188E0,9.377249908E0,9.974949141E0
1.283547425E1,4.126918030E-1,3.093766479E0,9.671687622E0,1.016283656E1
1.284541625E1,4.370910645E-2,2.720891876E0,9.871222687E0,1.023944336E1
1.285535825E1,-2.989283752E-1,2.246977386E0,1.017149826E1,1.042101926E1
1.286530025E1,-5.294490051E-1,1.795366516E0,1.059631485E1,1.076036921E1
1.287524225E1,-5.361849976E-1,1.514550476E0,1.083851120E1,1.095694677E1
1.288518425E1,-4.020639038E-1,1.461710358E0,1.069615723E1,1.080305660E1
1.289512625E1,-2.164498901E-1,1.537452850E0,1.014380585E1,1.026193982E1
1.290506825E1,-4.999603271E-2,1.769769745E0,9.396260376E0,9.561605179E0
1.291501025E1,1.047821045E-2,1.952090607E0,8.749754791E0,8.964874591E0
1.292495225E1,6.496490479E-2,2.069296875E0,8.505462799E0,8.753805311E0
1.293489375E1,9.190887451E-2,2.160457306E0,8.579708405E0,8.848017819E0
1.294483575E1,7.020401001E-2,2.167492676E0,8.987460480E0,9.245398800E0
1.295477775E1,1.646575928E-2,2.086062012E0,9.554032288E0,9.779133847E0
1.296471975E1,-1.092727661E-2,1.911375275E0,9.963880005E0,1.014555960E1
1.297466175E1,-8.232879639E-3,1.721719666E0,1.010189301E1,1.024756696E1
1.298460375E1,1.556762695E-2,1.562151489E0,1.016416351E1,1.028351980E1
1.299454575E1,4.535568237E-2,1.457668762E0,1.000534378E1,1.011107114E1
1.300448775E1,5.568420410E-2,1.447040863E0,9.626930695E0,9.735236134E0
1.301442975E1,4.161346436E-2,1.512754211E0,9.181007996E0,9.304894669E0
1.302437175E1,2.395019531E-3,1.607207794E0,8.779692535E0,8.925588140E0
1.303431375E1,-3.427871704E-2,1.648072815E0,8.600215759E0,8.756770531E0
1.304425575E1,-4.071533203E-2,1.570234680E0,8.771010590E0,8.910551131E0
1.305419775E1,-7.035369873E-3,1.473236389E0,9.182804260E0,9.300234891E0
1.306413975E1,6.406677246E-2,1.391805725E0,9.544302521E0,9.645462059E0
1.307408175E1,2.165995789E-1,1.283730469E0,9.729317780E0,9.816032995E0
1.308402375E1,3.873944092E-1,1.228046265E0,9.758656769E0,9.843249158E0
1.309396475E1,4.400848389E-1,1.213825836E0,9.551637268E0,9.638507267E0
1.310390675E1,4.926255798E-1,1.276695099E0,9.308093719E0,9.408147481E0
1.311384875E1,5.203179932E-1,1.369801483E0,8.936566315E0,9.055898874E0
1.312379075E1,5.493576050E-1,1.481618958E0,8.689579926E0,8.832088530E0
1.313373275E1,5.313949585E-1,1.633253632E0,8.594677277E0,8.764609262E0
1.314367475E1,5.426216125E-1,1.752405853E0,8.679401093E0,8.871153691E0
1.315361675E1,4.942721558E-1,1.775457916E0,8.873098297E0,9.062473678E0
1.316355875E1,4.855902100E-1,1.748064880E0,9.009764099E0,9.190613570E0
1.317350075E1,4.282594299E-1,1.702260132E0,9.184600525E0,9.350827904E0
1.318344275E1,3.703298950E-1,1.674867096E0,9.329948273E0,9.486319560E0
1.319338475E1,3.275189209E-1,1.686542816E0,9.321116638E0,9.478128016E0
1.320332675E1,2.320175171E-1,1.780098267E0,9.067543945E0,9.243534777E0
1.321326875E1,7.783813477E-3,1.958227844E0,8.925339661E0,9.137636726E0
1.322321075E1,2.293231201E-1,1.965412903E0,9.117240601E0,9.329496939E0
1.323315275E1,5.376818848E-1,1.750459900E0,8.991801453E0,9.176366658E0
1.324309475E1,4.020639038E-1,1.824406128E0,8.958570557E0,9.151289500E0
1.325303675E1,6.189628601E-1,2.082768860E0,9.057365112E0,9.314338620E0
1.326297875E1,7.192543030E-1,1.827848969E0,9.443562012E0,9.645684116E0
1.327292075E1,4.403842163E-1,1.735191650E0,9.845775604E0,1.000720368E1
1.328286275E1,2.656974792E-1,1.880240021E0,9.863588562E0,1.004471388E1
1.329280475E1,2.231858826E-1,1.947899323E0,9.835746460E0,1.002925880E1
1.330274675E1,-8.861572266E-2,1.723665619E0,9.834548950E0,9.984849972E0
1.331268875E1,-2.619552612E-2,1.596280518E0,9.997859344E0,1.012452415E1
1.332263075E1,1.901046753E-2,1.499282227E0,1.030786469E1,1.041634691E1
1.333257275E1,2.050735474E-2,1.396296387E0,1.053958282E1,1.063169179E1
1.334251475E1,-6.900650024E-2,1.249002686E0,1.059152481E1,1.066513795E1
1.335245675E1,-1.025367737E-1,1.145867157E0,1.054257660E1,1.060516132E1
1.336239875E1,9.295669556E-2,1.198258209E0,1.055649765E1,1.062469323E1
1.337234075E1,1.954934692E-1,1.197060699E0,1.062385757E1,1.069287248E1
1.338228275E1,2.838098145E-1,9.418414307E-1,1.054991135E1,1.059567094E1
1.339222475E1,4.713697815E-1,9.638456726E-1,1.014545242E1,1.020202886E1
1.340216675E1,3.418890381E-1,1.197210388E0,9.961185608E0,1.003869611E1
1.341210875E1,2.652484131E-1,1.634900208E0,9.637708282E0,9.778991581E0
1.342205075E1,1.610650635E-1,2.195035400E0,9.464069366E0,9.716621395E0
1.343199275E1,-8.741821289E-2,2.508034515E0,9.628876648E0,9.950534889E0
1.344193475E1,-4.546046448E-1,2.354902954E0,1.002076172E1,1.030378080E1
1.345187675E1,-8.411009216E-1,1.886826324E0,1.056981995E1,1.076980306E1
1.346181875E1,-1.155147858E0,1.317560120E0,1.114686996E1,1.128375120E1
1.347176075E1,-1.231189728E0,7.735913086E-1,1.149938690E1,1.159095211E1
1.348170275E1,-1.268761597E0,2.868035889E-1,1.163754959E1,1.171002019E1
1.349164475E1,-1.260828094E0,-7.484436035E-4,1.156315430E1,1.163169056E1
1.350158675E1,-1.184337158E0,-8.562194824E-2,1.114686996E1,1.120993736E1
1.351152875E1,-1.093176727E0,-4.041595459E-2,1.051623138E1,1.057297457E1
1.352147075E1,-9.419911194E-1,2.026785278E-1,9.964029694E0,1.001051016E1
1.353141275E1,-8.174501038E-1,5.587879944E-1,9.525591431E0,9.576918126E0
1.354135475E1,-8.484356689E-1,8.550219727E-1,9.340127106E0,9.417477370E0
1.355129675E1,-9.458830261E-1,1.149609375E0,9.404642944E0,9.521743817E0
1.356123875E1,-1.107247467E0,1.411115570E0,9.594597931E0,9.760817259E0
1.357118075E1,-1.310375061E0,1.481319580E0,9.736951904E0,9.935774901E0
1.358112175E1,-1.509161682E0,1.397044830E0,9.845476227E0,1.005796726E1
1.359106375E1,-1.725611572E0,1.288221130E0,9.944869537E0,1.017534663E1
1.360100575E1,-1.888472900E0,1.208137665E0,9.974507904E0,1.022334263E1
1.361094775E1,-1.945055237E0,1.149609375E0,9.962083740E0,1.021508463E1
1.362088975E1,-1.912423096E0,1.118025055E0,1.004186783E1,1.028330937E1
1.363083175E1,-1.907483368E0,1.129551086E0,1.006057892E1,1.030192344E1
1.364077375E1,-1.930385742E0,1.232836304E0,9.995614014E0,1.025468546E1
1.365071575E1,-1.998494110E0,1.355880432E0,9.897118835E0,1.018750959E1
1.366065775E1,-2.099384308E0,1.491049347E0,9.798024902E0,1.013074206E1
1.367059975E1,-2.108066254E0,1.656605072E0,9.727970581E0,1.009067368E1
1.368054175E1,-2.084265747E0,1.772015076E0,9.702523499E0,1.008083148E1
1.369048375E1,-1.915865936E0,1.789828033E0,9.662107544E0,1.001151082E1
1.370042575E1,-1.666634216E0,1.758543091E0,9.613159332E0,9.913777068E0
1.371036775E1,-1.440604248E0,1.671274567E0,9.582772522E0,9.833515571E0
1.372030975E1,-1.207838287E0,1.627715149E0,9.549242249E0,9.761985323E0
1.373025175E1,-1.026116180E0,1.646276550E0,9.541009369E0,9.736221067E0
1.374019375E1,-9.545649719E-1,1.773511963E0,9.482630768E0,9.694164495E0
1.375013575E1,-9.936337280E-1,1.916614380E0,9.378896484E0,9.624158038E0
1.376007775E1,-1.087937622E0,2.078128510E0,9.230854340E0,9.524226909E0
1.377001975E1,-1.151854706E0,2.253863068E0,9.106762390E0,9.451972769E0
1.377996175E1,-1.265019379E0,2.370470581E0,9.041947174E0,9.432720366E0
1.378990375E1,-1.348545685E0,2.451452179E0,8.979077911E0,9.404894119E0
1.379984575E1,-1.372346191E0,2.451751556E0,8.986412659E0,9.415414608E0
1.380978775E1,-1.312470703E0,2.387086029E0,9.151968384E0,9.548784444E0
1.381972975E1,-1.167272644E0,2.301015015E0,9.373058624E0,9.721698591E0
1.382967175E1,-9.511221313E-1,2.206411743E0,9.498647461E0,9.797815556E0
1.383961375E1,-7.054829407E-1,2.165397034E0,9.575437775E0,9.842543323E0
1.384955575E1,-4.932243347E-1,2.170935516E0,9.612560577E0,9.866993063E0
1.385949775E1,-3.525169373E-1,2.254461823E0,9.565558319E0,9.833960151E0
1.386943975E1,-3.354524231E-1,2.360291748E0,9.403744812E0,9.701233012E0
1.387938175E1,-4.174818420E-1,2.572849731E0,9.267977142E0,9.627525494E0
1.388932375E1,-6.015989685E-1,2.775677948E0,9.167685699E0,9.597539814E0
1.389926575E1,-7.674540710E-1,2.933449860E0,9.131461029E0,9.621730320E0
1.390920775E1,-8.590635681E-1,3.047662354E0,9.135802002E0,9.668976898E0
1.391914975E1,-9.526190186E-1,3.102149048E0,9.221873016E0,9.776182979E0
1.392909192E1,-1.048569489E0,3.126398621E0,9.300609283E0,9.867887279E0
1.393903392E1,-1.018332367E0,3.118465118E0,9.281748505E0,9.844423843E0
1.394897592E1,-1.017583923E0,3.073408813E0,9.238787842E0,9.789612840E0
1.395891792E1,-1.039139099E0,3.060086517E0,9.158554688E0,9.712006153E0
1.396885992E1,-1.081950073E0,3.085832977E0,9.069639587E0,9.641127702E0
1.397880192E1,-1.144669647E0,3.115321655E0,8.985963593E0,9.579302652E0
1.398874292E1,-1.219364319E0,3.180585938E0,8.962013397E0,9.587526291E0
1.399868492E1,-1.208437042E0,3.326233063E0,8.874894562E0,9.554470156E0
1.400862692E1,-1.080602875E0,3.515589294E0,8.745413818E0,9.487324887E0
1.401856892E1,-8.898994446E-1,3.761976929E0,8.546627197E0,9.380257346E0
1.402851092E1,-8.087681580E-1,3.961362305E0,8.359665985E0,9.286038586E0
1.403845292E1,-2.295027466E0,3.944148102E0,9.695488129E0,1.071568688E1
1.404839492E1,-2.115401001E0,4.612208862E0,9.112300873E0,1.042983313E1
1.405833692E1,-1.468745728E0,3.650009766E0,9.999206543E0,1.074541376E1
1.406827892E1,-1.204395447E0,2.361339569E0,1.059706329E1,1.092356368E1
1.407822092E1,-9.183403015E-1,1.839075623E0,1.093491074E1,1.112644691E1
1.408816292E1,-9.307644653E-1,1.531016235E0,1.152139114E1,1.165987938E1
1.409810492E1,-1.111438751E0,1.503922577E0,1.157063873E1,1.172078325E1
1.410804692E1,-1.097368011E0,1.652862854E0,1.122485779E1,1.139884225E1
1.411798892E1,-9.060658264E-1,1.687141571E0,1.058972855E1,1.076149398E1
1.412793092E1,-5.487588501E-1,1.614392853E0,9.724527740E0,9.872884094E0
1.413787292E1,-1.854643250E-1,1.648821259E0,8.938661957E0,9.091352272E0
1.414781492E1,1.139131165E-1,2.034419403E0,8.831634521E0,9.063642029E0
1.415775692E1,2.224374390E-1,2.422113190E0,8.703051910E0,9.036549301E0
1.416769892E1,2.489323425E-1,2.746338959E0,8.454269257E0,8.892638172E0
1.417764092E1,9.385482788E-2,3.084485779E0,8.225694580E0,8.785494441E0
1.418758292E1,-1.698966980E-1,3.425177307E0,8.063282318E0,8.762261478E0
1.419752492E1,-4.938230896E-1,3.650009766E0,8.178093567E0,8.969261225E0
1.420746692E1,-7.601193237E-1,3.735482025E0,8.462801514E0,9.281735657E0
1.421740892E1,-8.896000671E-1,3.628454590E0,8.541986847E0,9.323229606E0
1.422735092E1,-7.469467163E-1,3.295546875E0,8.468040619E0,9.117360941E0
1.423729292E1,-6.045927429E-1,2.856958923E0,8.446335754E0,8.936908545E0
1.424723492E1,-6.095324707E-1,2.539319458E0,8.639583893E0,9.025634769E0
1.425717692E1,-7.180567932E-1,2.306553497E0,9.054221649E0,9.370951087E0
1.426711892E1,-7.619155884E-1,2.176174622E0,8.885971527E0,9.180236453E0
1.427706092E1,-9.273216248E-1,2.024240570E0,9.677675171E0,9.930502102E0
1.428700292E1,-1.259630585E0,2.035766602E0,1.073971664E1,1.100329625E1
1.429694492E1,-1.631157990E0,2.351909180E0,1.114447495E1,1.150614944E1
1.430688692E1,-2.027084656E0,2.482288055E0,1.109911926E1,1.155254407E1
1.431682892E1,-2.049088898E0,2.499202881E0,1.064316742E1,1.112302985E1
1.432677092E1,-1.841620331E0,2.512225800E0,9.942923584E0,1.041943248E1
1.433671292E1,-1.724414063E0,2.617906036E0,9.417665863E0,9.925697264E0
1.434665492E1,-1.577569427E0,2.826572113E0,8.989855499E0,9.554880277E0
1.435659692E1,-1.481469269E0,2.976410522E0,8.684939575E0,9.299566991E0
1.436653792E1,-1.393901367E0,3.084635468E0,8.571475525E0,9.215645917E0
1.437647992E1,-1.276246033E0,3.237617340E0,8.517587585E0,9.201101470E0
1.438642192E1,-1.124611359E0,3.342249756E0,8.352181549E0,9.066108358E0
1.439636392E1,-1.019978943E0,3.382366333E0,8.230933685E0,8.957065836E0
1.440630592E1,-9.449848938E-1,3.437451782E0,8.172405396E0,8.916124783E0
1.441624792E1,-9.198371887E-1,3.446582794E0,8.250692596E0,8.988824269E0
1.442618992E1,-9.382489014E-1,3.404071198E0,8.509953461E0,9.213431479E0
1.443613192E1,-1.142274628E0,3.439248047E0,8.906029816E0,9.615122752E0
1.444607392E1,-1.140628052E0,3.454516296E0,9.292825470E0,9.979545100E0
1.445601592E1,-1.037492523E0,3.362457733E0,9.420210571E0,1.005598727E1
1.446595792E1,-9.455836487E-1,3.281476135E0,9.339079285E0,9.943873287E0
1.447589992E1,-9.448352051E-1,3.316952362E0,9.079668732E0,9.712634597E0
1.448584192E1,-1.088835754E0,3.505709839E0,8.944200439E0,9.668210086E0
1.449578392E1,-1.198557587E0,3.651356964E0,8.904233551E0,9.698160810E0
1.450572592E1,-1.224603424E0,3.505709839E0,8.897796936E0,9.641599729E0
1.451566792E1,-1.138083344E0,3.403622131E0,8.990154877E0,9.680018699E0
1.452560992E1,-1.158740387E0,3.344345398E0,9.031768341E0,9.700523944E0
1.453555192E1,-1.298549652E0,3.270548859E0,9.232351227E0,9.880234320E0
1.454549392E1,-1.396446075E0,3.232228546E0,9.473649445E0,1.010679953E1
1.455543592E1,-1.493594055E0,3.207230530E0,9.638756104E0,1.026755911E1
1.456537792E1,-1.531914368E0,3.168461151E0,9.709109802E0,1.032728042E1
1.457531992E1,-1.502874756E0,3.098706207E0,9.655970306E0,1.025174986E1
1.458526192E1,-1.450633392E0,3.047063599E0,9.615853729E0,1.019085751E1
1.459520392E1,-1.416354675E0,3.012485504E0,9.715097351E0,1.026957867E1
1.460514592E1,-1.323397980E0,3.035836945E0,9.918524323E0,1.045680701E1
1.461508792E1,-1.338666229E0,3.098706207E0,1.005803421E1,1.060933832E1
1.462502992E1,-1.440753937E0,3.079396362E0,1.012793884E1,1.068333277E1
1.463497192E1,-1.594484253E0,3.063080292E0,1.017823425E1,1.074808324E1
1.464491392E1,-1.593885498E0,3.201542358E0,1.007869125E1,1.069440797E1
1.465485592E1,-1.420845337E0,3.649411011E0,9.569001160E0,1.033938032E1
1.466479792E1,-1.341660004E0,4.057013397E0,8.931925964E0,9.901449929E0
1.467473992E1,-1.480571136E0,4.143234100E0,8.653504944E0,9.707812705E0
1.468468192E1,-1.683099976E0,3.949087830E0,8.452173615E0,9.479839610E0
1.469462392E1,-1.897005157E0,3.668870544E0,8.478518829E0,9.431040302E0
1.470456492E1,-2.079326019E0,3.307521973E0,9.006171570E0,9.817047654E0
1.471450692E1,-2.207908630E0,2.787952423E0,9.851014709E0,1.047330082E1
1.472444892E1,-2.231559448E0,2.183659058E0,1.071995773E1,1.116538035E1
1.473439092E1,-2.127825165E0,1.700014801E0,1.117516113E1,1.150225702E1
1.474433292E1,-1.936822357E0,1.528920593E0,1.110705276E1,1.137785130E1
1.475427492E1,-1.656156006E0,1.658850403E0,1.057311310E1,1.082983647E1
1.476421692E1,-1.359323273E0,1.971849518E0,9.868827667E0,1.015527990E1
1.477415892E1,-1.186732178E0,2.236199799E0,9.304800568E0,9.643040828E0
1.478410092E1,-1.067280579E0,2.491718445E0,8.904832306E0,9.308264448E0
1.479404292E1,-9.318122864E-1,2.629132690E0,8.605155487E0,9.045955660E0
1.480398492E1,-9.232800293E-1,2.608176270E0,8.472531281E0,8.912845548E0
1.481392692E1,-1.076112213E0,2.635120239E0,8.403075714E0,8.872066142E0
1.482386892E1,-1.210532684E0,2.603386230E0,8.461154938E0,8.934995922E0
1.483381092E1,-1.285227356E0,2.424508209E0,8.514743500E0,8.945999457E0
1.484375292E1,-1.471140747E0,2.401007080E0,8.410709839E0,8.869562001E0
1.485369492E1,-1.760788422E0,2.583777008E0,8.297096100E0,8.866683889E0
1.486363692E1,-2.045945435E0,2.723286896E0,8.330326996E0,8.999807337E0
1.487357892E1,-2.282303925E0,2.900668030E0,8.503367157E0,9.269845696E0
1.488352092E1,-2.268981628E0,3.007695465E0,8.812624054E0,9.584198055E0
1.489346292E1,-1.867366791E0,2.855012970E0,9.099277954E0,9.717768112E0
1.490340492E1,-1.481918335E0,2.641706543E0,9.230704651E0,9.714968027E0
1.491334692E1,-1.230890350E0,2.592608643E0,9.267977142E0,9.702170424E0
1.492328892E1,-1.177152100E0,2.644700317E0,9.253157959E0,9.695414331E0
1.493323079E1,-1.331930237E0,2.733316040E0,9.212442627E0,9.701244966E0
1.494317279E1,-1.477427673E0,2.860252075E0,9.118438110E0,9.670043849E0
1.495311479E1,-1.505569153E0,2.973117371E0,8.980425110E0,9.578841294E0
1.496305679E1,-1.436562653E0,3.021317139E0,8.771609344E0,9.387928419E0
1.497299879E1,-1.383872223E0,3.059188385E0,8.505612488E0,9.144352339E0
1.498294079E1,-1.471440125E0,3.137475586E0,8.384065247E0,9.072014063E0
1.499288279E1,-1.662293243E0,3.248694305E0,8.363408203E0,9.124901659E0
1.500282479E1,-1.793719940E0,3.296445007E0,8.338559875E0,9.144154510E0
1.501276679E1,-1.828896790E0,3.288062439E0,8.410410461E0,9.213643264E0
1.502270879E1,-1.755549316E0,3.236719208E0,8.355025635E0,9.130430329E0
1.503265079E1,-1.705852661E0,3.120560760E0,8.323141937E0,9.051106257E0
1.504259179E1,-1.717079315E0,3.052602081E0,8.584648132E0,9.271619297E0
1.505253379E1,-1.700912933E0,3.098257141E0,8.814120941E0,9.496369311E0
1.506247579E1,-1.626517639E0,3.183879089E0,8.789272614E0,9.488622596E0
1.507241779E1,-1.554217987E0,3.244503021E0,8.708590393E0,9.422416890E0
1.508235979E1,-1.513951721E0,3.339854736E0,8.712631989E0,9.452863886E0
1.509230179E1,-1.560205536E0,3.484753418E0,8.779692535E0,9.573962018E0
1.510224379E1,-1.638343048E0,3.659589844E0,8.889414368E0,9.751843598E0
1.511218579E1,-1.763782196E0,3.801943817E0,9.047335968E0,9.970957454E0
1.512212779E1,-1.855990448E0,3.829486542E0,9.153165894E0,1.009406328E1
1.513206979E1,-1.802850952E0,3.759731598E0,9.132658539E0,1.003948730E1
1.514201179E1,-1.633702698E0,3.617527313E0,9.159303131E0,9.982400624E0
1.515195379E1,-1.487456818E0,3.606899414E0,9.269474030E0,1.005710694E1
1.516189579E1,-1.497186584E0,3.743415527E0,9.408684540E0,1.023611607E1
1.517183779E1,-1.632355499E0,3.877087555E0,9.426946564E0,1.032297021E1
1.518177979E1,-1.634002075E0,3.927233276E0,9.306896210E0,1.023286084E1
1.519172179E1,-1.593586121E0,3.870351563E0,9.201665039E0,1.010889596E1
1.520166379E1,-1.480271759E0,3.914060669E0,9.176966400E0,1.008601942E1
1.521160579E1,-1.334924011E0,4.100123749E0,9.058412933E0,1.003234179E1
1.522154779E1,-1.188079376E0,4.326752472E0,8.808432770E0,9.885383524E0
1.523148979E1,-1.108295288E0,4.514462128E0,8.591833191E0,9.768740161E0
1.524143179E1,-1.317410431E0,4.708458710E0,8.613238678E0,9.904192758E0
1.525137379E1,-1.779200134E0,4.634512482E0,9.006470947E0,1.028400593E1
1.526131579E1,-2.327210541E0,4.301006012E0,9.821975098E0,1.097204431E1
1.527125779E1,-2.730921021E0,3.980821838E0,1.070708450E1,1.174506410E1
1.528119979E1,-2.841091919E0,3.615281982E0,1.123623413E1,1.214063526E1
1.529114179E1,-2.699336700E0,3.123554535E0,1.147693359E1,1.219684452E1
1.530108379E1,-2.616708527E0,2.652484131E0,1.166883453E1,1.224926671E1
1.531102579E1,-2.615810394E0,2.448608093E0,1.163695084E1,1.217607368E1
1.532096779E1,-2.397115173E0,2.448458405E0,1.116168915E1,1.167580466E1
1.533090979E1,-2.092199249E0,2.544857941E0,1.028211823E1,1.079701602E1
1.534085179E1,-1.749861145E0,2.748284912E0,9.426497498E0,9.973662269E0
1.535079379E1,-1.404379578E0,3.020269318E0,8.678652649E0,9.295876535E0
1.536073479E1,-1.116228790E0,3.267854462E0,8.054001617E0,8.763092008E0
1.537067679E1,-9.419911194E-1,3.505560150E0,7.713010712E0,8.524484352E0
1.538061879E1,-8.346643066E-1,3.661386108E0,7.619904327E0,8.495019405E0
1.539056079E1,-8.045768738E-1,3.724704437E0,7.611072693E0,8.511709266E0
1.540050279E1,-7.803273010E-1,3.666625214E0,7.692802734E0,8.557585236E0
1.541044479E1,-7.939489746E-1,3.521127777E0,7.853269043E0,8.643062562E0
1.542038679E1,-8.307723999E-1,3.268153839E0,8.120014343E0,8.792362892E0
1.543032879E1,-9.123527527E-1,2.963686981E0,8.500373383E0,9.048324470E0
1.544027079E1,-1.093775482E0,2.754272461E0,9.094487915E0,9.565148824E0
1.545021279E1,-1.240620117E0,2.672392731E0,9.738299103E0,1.017424644E1
1.546015479E1,-1.291364594E0,2.610870667E0,1.006012985E1,1.047332234E1
1.547009679E1,-1.332828369E0,2.559078369E0,1.021535706E1,1.061502865E1
1.548003879E1,-1.253792725E0,2.514620819E0,1.026969406E1,1.064715597E1
1.548998079E1,-1.173559570E0,2.521656189E0,1.012030472E1,1.049554951E1
1.549992279E1,-1.206191711E0,2.584675140E0,9.785001984E0,1.019223763E1
1.550986479E1,-1.238973541E0,2.744842072E0,9.267827454E0,9.744836538E0
1.551980679E1,-1.260229340E0,2.953807526E0,8.600664825E0,9.180664046E0
1.552974879E1,-1.278940430E0,3.137774963E0,8.026758270E0,8.712644184E0
1.553969079E1,-1.352287903E0,3.277135162E0,7.638016663E0,8.420664818E0
1.554963279E1,-1.386117554E0,3.421435089E0,7.470814362E0,8.333103093E0
1.555957479E1,-1.465302887E0,3.535647583E0,7.507787476E0,8.427027303E0
1.556951679E1,-1.577120361E0,3.677552490E0,7.623347168E0,8.609710971E0
1.557945879E1,-1.629661102E0,3.791615295E0,7.758366394E0,8.787740948E0
1.558940079E1,-1.611249390E0,3.882027283E0,7.886799316E0,8.936882223E0
1.559934279E1,-1.657652893E0,3.980073395E0,8.085286560E0,9.163004753E0
1.560928479E1,-1.723515930E0,4.053121490E0,8.305328979E0,9.400893066E0
1.561922679E1,-1.637444916E0,4.070335693E0,8.482111359E0,9.549611071E0
1.562916879E1,-1.487756195E0,3.996389465E0,8.651409302E0,9.645280201E0
1.563911079E1,-1.398092651E0,3.920646973E0,8.815318451E0,9.748639656E0
1.564905279E1,-1.430275726E0,3.833378448E0,8.939560089E0,9.831389198E0
1.565899379E1,-1.465452576E0,3.760779419E0,9.069489899E0,9.927067045E0
1.566893579E1,-1.502425690E0,3.712429962E0,9.188342743E0,1.002322610E1
1.567887779E1,-1.528022461E0,3.673061829E0,9.266330566E0,1.008420141E1
1.568881979E1,-1.524878998E0,3.690725098E0,9.262588348E0,1.008673637E1
1.569876179E1,-1.520837402E0,3.684587860E0,9.263037415E0,1.008429453E1
1.570870379E1,-1.575773163E0,3.661535797E0,9.269474030E0,1.009024550E1
1.571864579E1,-1.606309662E0,3.641926575E0,9.350305939E0,1.016228720E1
1.572858779E1,-1.619482269E0,3.574566650E0,9.468560028E0,1.024957943E1
1.573852979E1,-1.651964722E0,3.474724274E0,9.675429840E0,1.041233109E1
1.574847179E1,-1.602717133E0,3.330274658E0,9.812095642E0,1.048506807E1
1.575841379E1,-1.574276276E0,3.190764771E0,9.865085449E0,1.048709858E1
1.576835579E1,-1.585652618E0,3.101400604E0,9.889933777E0,1.048540748E1
1.577829779E1,-1.583107910E0,3.045267334E0,9.811496887E0,1.039448676E1
1.578823979E1,-1.557211761E0,3.122207336E0,9.537416840E0,1.015556040E1
1.579818179E1,-1.494043121E0,3.407813416E0,9.022487640E0,9.759643454E0
1.580812379E1,-1.447489929E0,3.789669342E0,8.502768402E0,9.420928368E0
1.581806579E1,-1.510359192E0,4.027075653E0,8.238268433E0,9.293416485E0
1.582800779E1,-1.597927094E0,4.045038300E0,8.240364075E0,9.317687799E0
1.583794979E1,-1.818717957E0,3.760480042E0,8.515192566E0,9.484590111E0
1.584789179E1,-2.053280182E0,3.320993958E0,9.179660797E0,9.975526689E0
1.585783379E1,-2.245181122E0,2.943479004E0,1.008527756E1,1.074326442E1
1.586777579E1,-2.364183655E0,2.579885101E0,1.096649506E1,1.151126341E1
1.587771779E1,-2.419418793E0,2.311044159E0,1.167512146E1,1.214508022E1
1.588765979E1,-2.493365021E0,2.146087189E0,1.209320206E1,1.253268109E1
1.589760179E1,-2.522853699E0,2.076931000E0,1.215622101E1,1.258777750E1
1.590754379E1,-2.450104980E0,2.029928741E0,1.188498505E1,1.230351554E1
1.591748579E1,-2.294279022E0,2.007325745E0,1.138891663E1,1.178984711E1
1.592742779E1,-2.116897888E0,2.041604462E0,1.079719711E1,1.119057063E1
1.593736975E1,-1.918260956E0,2.021396484E0,1.010608429E1,1.048325849E1
1.594731175E1,-1.660347290E0,2.012115784E0,9.372609558E0,9.728883439E0
1.595725375E1,-1.468596039E0,2.051334229E0,8.702453156E0,9.060763619E0
1.596719475E1,-1.381926270E0,2.115850067E0,8.173602905E0,8.555368266E0
1.597713675E1,-1.400637360E0,2.173031158E0,7.845185852E0,8.260193126E0
1.598707875E1,-1.400188293E0,2.219734039E0,7.758516083E0,8.190379617E0
1.599702075E1,-1.438658295E0,2.243983612E0,7.895481262E0,8.333296137E0
1.600696275E1,-1.533560944E0,2.291434937E0,8.073910217E0,8.531735429E0
1.601690475E1,-1.706900482E0,2.359842682E0,8.231532440E0,8.731580215E0
1.602684675E1,-1.824855194E0,2.404300232E0,8.370742950E0,8.898319708E0
1.603678875E1,-1.829046478E0,2.401306458E0,8.474028168E0,8.995600987E0
1.604673075E1,-1.770368500E0,2.351609802E0,8.606652374E0,9.096083684E0
1.605667275E1,-1.700613556E0,2.268532562E0,8.837622070E0,9.281265555E0
1.606661475E1,-1.623972931E0,2.211201782E0,9.099876709E0,9.504444093E0
1.607655675E1,-1.587897949E0,2.161205750E0,9.426946564E0,9.800997485E0
1.608649875E1,-1.530866547E0,2.174677734E0,9.807155914E0,1.016135241E1
1.609644075E1,-1.522783356E0,2.194736023E0,1.007345215E1,1.042162049E1
1.610638275E1,-1.452429657E0,2.255060577E0,1.014829651E1,1.049679819E1
1.611632475E1,-1.426383820E0,2.352358246E0,1.010533585E1,1.047310712E1
1.612626675E1,-1.395547943E0,2.421514435E0,9.923613739E0,1.030967487E1
1.613620875E1,-1.340761871E0,2.522105255E0,9.698481903E0,1.011035155E1
1.614615075E1,-1.313967590E0,2.594105530E0,9.442514191E0,9.880129987E0
1.615609275E1,-1.354533234E0,2.665956116E0,9.267528076E0,9.738026439E0
1.616603475E1,-1.372944946E0,2.749632111E0,9.166338501E0,9.667844438E0
1.617597675E1,-1.419049072E0,2.797233124E0,9.031169586E0,9.560347144E0
1.618591875E1,-1.459165649E0,2.860252075E0,8.888067169E0,9.450288055E0
1.619586075E1,-1.625769196E0,2.996319122E0,8.741072845E0,9.382292271E0
1.620580275E1,-1.715283051E0,3.081641693E0,8.678203583E0,9.367493202E0
1.621574475E1,-1.552272034E0,2.871029663E0,8.690328369E0,9.283004199E0
1.622568675E1,-1.549877014E0,3.038681030E0,8.614885254E0,9.265632688E0
1.623562775E1,-1.601968689E0,3.121009827E0,8.691525879E0,9.372813245E0
1.624556975E1,-1.685644684E0,3.238814850E0,8.741072845E0,9.472997103E0
1.625551175E1,-1.703307953E0,3.312611389E0,8.899443512E0,9.647525435E0
1.626545375E1,-1.706750793E0,3.310366058E0,9.148226166E0,9.877325736E0
1.627539575E1,-1.654060364E0,3.324137421E0,9.319919128E0,1.003228278E1
1.628533775E1,-1.589694214E0,3.315006409E0,9.440418549E0,1.013103635E1
1.629527975E1,-1.502276001E0,3.253184967E0,9.512269135E0,1.016480741E1
1.630522175E1,-1.390458527E0,3.204386444E0,9.603429565E0,1.021896897E1
1.631516375E1,-1.269360352E0,3.145259399E0,9.728569336E0,1.030286337E1
1.632510575E1,-1.170715485E0,3.062930603E0,9.862690430E0,1.039349706E1
1.633504775E1,-1.074914703E0,2.950664062E0,1.002989273E1,1.051002418E1
1.634498975E1,-1.013242950E0,2.852019196E0,1.017119888E1,1.061197255E1
1.635493175E1,-9.389973450E-1,2.775677948E0,1.022358994E1,1.063521957E1
1.636487375E1,-7.759863281E-1,2.702031097E0,1.022808060E1,1.060739174E1
1.637481575E1,-6.381230164E-1,2.712808685E0,1.012928604E1,1.050566360E1
1.638475775E1,-5.381309509E-1,2.846630402E0,9.921817474E0,1.033611879E1
1.639469975E1,-3.017724609E-1,2.994522858E0,9.701924744E0,1.015803020E1
1.640464175E1,-1.697470093E-1,3.198997650E0,9.461075592E0,9.988711197E0
1.641458375E1,-1.772314453E-1,3.500919800E0,9.358987885E0,9.993923386E0
1.642452575E1,-2.809657288E-1,3.606600037E0,9.327253876E0,1.000420764E1
1.643446775E1,-4.848417664E-1,3.518433380E0,9.460327148E0,1.010505986E1
1.644440975E1,-7.523355103E-1,3.245550842E0,9.731413422E0,1.028591348E1
1.645435175E1,-9.074130249E-1,2.664010162E0,1.008976822E1,1.047491152E1
1.646429375E1,-1.349144440E0,2.406096497E0,1.049781967E1,1.085420236E1
1.647423575E1,-1.715133362E0,2.113754425E0,1.086335953E1,1.119920624E1
1.648417775E1,-1.851050720E0,1.893861694E0,1.096095657E1,1.127633229E1
1.649411975E1,-1.860930176E0,1.825753326E0,1.078073135E1,1.109146541E1
1.650406175E1,-1.456770630E0,1.765578461E0,1.038719971E1,1.063641696E1
1.651400275E1,-9.361532593E-1,1.723515930E0,9.900262299E0,1.009267475E1
1.652394475E1,-5.185217285E-1,1.855092316E0,9.356592865E0,9.552803899E0
1.653388675E1,-2.152523804E-1,2.198178864E0,9.007967834E0,9.274794252E0
1.654382875E1,-3.727249146E-2,2.413880310E0,8.958570557E0,9.278156811E0
1.655377075E1,-8.098159790E-2,2.581980743E0,9.015901337E0,9.378681117E0
1.656371275E1,-1.924996948E-1,2.706372070E0,9.068891144E0,9.466060030E0
1.657365475E1,-2.893482971E-1,2.719844055E0,9.086853790E0,9.489583022E0
1.658359675E1,-3.697311401E-1,2.678230591E0,9.055419159E0,9.450409322E0
1.659353875E1,-4.336482239E-1,2.640359344E0,8.980425110E0,9.370570068E0
1.660348075E1,-4.391867065E-1,2.511477356E0,8.934171295E0,9.290846044E0
1.661342275E1,-4.942721558E-1,2.317780151E0,9.018296356E0,9.324488134E0
1.662336475E1,-5.426216125E-1,2.089055786E0,9.213340759E0,9.462781845E0
1.663330675E1,-6.721023560E-1,1.815125427E0,9.527537384E0,9.722158736E0
1.664324875E1,-7.749385071E-1,1.878743134E0,9.763297119E0,9.972571187E0
1.665319075E1,-7.872129822E-1,1.945803680E0,9.736502838E0,9.960187938E0
1.666313275E1,-8.111631775E-1,1.929487610E0,9.787546692E0,1.000884501E1
1.667307475E1,-7.628137207E-1,2.015858002E0,1.003752686E1,1.026632912E1
